{
  "resourceType": "Bundle",
  "type": "collection",
  "entry": [
    {
      "resource": {
        "resourceType": "Patient",
        "id": "conjunctivitis-patient-001",
        "identifier": [
          {
            "system": "http://www.cgmh.org.tw/patient-id",
            "value": "C123456789"
          }
        ],
        "name": [
          {
            "family": "王",
            "given": ["小明"]
          }
        ],
        "gender": "male",
        "birthDate": "1985-03-15",
        "address": [
          {
            "use": "home",
            "text": "台北市大安區和平東路三段128號2樓",
            "city": "台北市",
            "district": "大安區",
            "postalCode": "106"
          }
        ],
        "telecom": [
          {
            "system": "phone",
            "value": "0912-345-678",
            "use": "mobile"
          }
        ]
      }
    },
    {
      "resource": {
        "resourceType": "Encounter",
        "id": "conjunctivitis-encounter-001",
        "status": "finished",
        "class": {
          "system": "http://terminology.hl7.org/CodeSystem/v3-ActCode",
          "code": "AMB",
          "display": "ambulatory"
        },
        "subject": {
          "reference": "Patient/conjunctivitis-patient-001"
        },
        "period": {
          "start": "2025-11-28T09:30:00+08:00",
          "end": "2025-11-28T10:00:00+08:00"
        },
        "reasonCode": [
          {
            "coding": [
              {
                "system": "http://hl7.org/fhir/sid/icd-10-cm",
                "code": "H10.30",
                "display": "Acute conjunctivitis, unspecified"
              }
            ]
          }
        ]
      }
    },
    {
      "resource": {
        "resourceType": "Condition",
        "id": "conjunctivitis-condition-001",
        "clinicalStatus": {
          "coding": [
            {
              "system": "http://terminology.hl7.org/CodeSystem/condition-clinical",
              "code": "active"
            }
          ]
        },
        "verificationStatus": {
          "coding": [
            {
              "system": "http://terminology.hl7.org/CodeSystem/condition-ver-status",
              "code": "confirmed"
            }
          ]
        },
        "category": [
          {
            "coding": [
              {
                "system": "http://terminology.hl7.org/CodeSystem/condition-category",
                "code": "encounter-diagnosis"
              }
            ]
          }
        ],
        "code": {
          "coding": [
            {
              "system": "http://hl7.org/fhir/sid/icd-10-cm",
              "code": "H10.30",
              "display": "Acute conjunctivitis, unspecified"
            },
            {
              "system": "http://hl7.org/fhir/sid/icd-10-cm",
              "code": "H10",
              "display": "Conjunctivitis"
            }
          ],
          "text": "急性結膜炎"
        },
        "subject": {
          "reference": "Patient/conjunctivitis-patient-001"
        },
        "encounter": {
          "reference": "Encounter/conjunctivitis-encounter-001"
        },
        "onsetDateTime": "2025-11-26"
      }
    },
    {
      "resource": {
        "resourceType": "Observation",
        "id": "conjunctivitis-obs-001",
        "status": "final",
        "category": [
          {
            "coding": [
              {
                "system": "http://terminology.hl7.org/CodeSystem/observation-category",
                "code": "exam"
              }
            ]
          }
        ],
        "code": {
          "coding": [
            {
              "system": "http://snomed.info/sct",
              "code": "246636008",
              "display": "Eye redness"
            }
          ],
          "text": "眼睛紅腫"
        },
        "subject": {
          "reference": "Patient/conjunctivitis-patient-001"
        },
        "encounter": {
          "reference": "Encounter/conjunctivitis-encounter-001"
        },
        "effectiveDateTime": "2025-11-28T09:30:00+08:00",
        "valueString": "雙眼結膜充血，有分泌物"
      }
    },
    {
      "resource": {
        "resourceType": "MedicationRequest",
        "id": "conjunctivitis-med-001",
        "status": "active",
        "intent": "order",
        "medicationCodeableConcept": {
          "coding": [
            {
              "system": "http://www.whocc.no/atc",
              "code": "S01AA01",
              "display": "Chloramphenicol"
            }
          ],
          "text": "氯黴素眼藥水"
        },
        "subject": {
          "reference": "Patient/conjunctivitis-patient-001"
        },
        "encounter": {
          "reference": "Encounter/conjunctivitis-encounter-001"
        },
        "authoredOn": "2025-11-28",
        "dosageInstruction": [
          {
            "text": "每日4次，每次1-2滴於患眼",
            "timing": {
              "repeat": {
                "frequency": 4,
                "period": 1,
                "periodUnit": "d"
              }
            }
          }
        ]
      }
    },
    {
      "resource": {
        "resourceType": "Patient",
        "id": "conjunctivitis-patient-002",
        "identifier": [
          {
            "system": "http://www.cgmh.org.tw/patient-id",
            "value": "C234567890"
          }
        ],
        "name": [
          {
            "family": "李",
            "given": ["美華"]
          }
        ],
        "gender": "female",
        "birthDate": "1992-07-22",
        "address": [
          {
            "use": "home",
            "text": "新北市板橋區中山路一段50號8樓之1",
            "city": "新北市",
            "district": "板橋區",
            "postalCode": "220"
          }
        ],
        "telecom": [
          {
            "system": "phone",
            "value": "0923-456-789",
            "use": "mobile"
          }
        ]
      }
    },
    {
      "resource": {
        "resourceType": "Encounter",
        "id": "conjunctivitis-encounter-002",
        "status": "finished",
        "class": {
          "system": "http://terminology.hl7.org/CodeSystem/v3-ActCode",
          "code": "AMB",
          "display": "ambulatory"
        },
        "subject": {
          "reference": "Patient/conjunctivitis-patient-002"
        },
        "period": {
          "start": "2025-11-29T14:20:00+08:00",
          "end": "2025-11-29T14:45:00+08:00"
        },
        "reasonCode": [
          {
            "coding": [
              {
                "system": "http://hl7.org/fhir/sid/icd-10-cm",
                "code": "H10.31",
                "display": "Acute follicular conjunctivitis"
              }
            ]
          }
        ]
      }
    },
    {
      "resource": {
        "resourceType": "Condition",
        "id": "conjunctivitis-condition-002",
        "clinicalStatus": {
          "coding": [
            {
              "system": "http://terminology.hl7.org/CodeSystem/condition-clinical",
              "code": "active"
            }
          ]
        },
        "verificationStatus": {
          "coding": [
            {
              "system": "http://terminology.hl7.org/CodeSystem/condition-ver-status",
              "code": "confirmed"
            }
          ]
        },
        "category": [
          {
            "coding": [
              {
                "system": "http://terminology.hl7.org/CodeSystem/condition-category",
                "code": "encounter-diagnosis"
              }
            ]
          }
        ],
        "code": {
          "coding": [
            {
              "system": "http://hl7.org/fhir/sid/icd-10-cm",
              "code": "H10.31",
              "display": "Acute follicular conjunctivitis"
            },
            {
              "system": "http://hl7.org/fhir/sid/icd-10-cm",
              "code": "H10",
              "display": "Conjunctivitis"
            }
          ],
          "text": "急性濾泡性結膜炎"
        },
        "subject": {
          "reference": "Patient/conjunctivitis-patient-002"
        },
        "encounter": {
          "reference": "Encounter/conjunctivitis-encounter-002"
        },
        "onsetDateTime": "2025-11-27"
      }
    },
    {
      "resource": {
        "resourceType": "Observation",
        "id": "conjunctivitis-obs-002",
        "status": "final",
        "category": [
          {
            "coding": [
              {
                "system": "http://terminology.hl7.org/CodeSystem/observation-category",
                "code": "exam"
              }
            ]
          }
        ],
        "code": {
          "coding": [
            {
              "system": "http://snomed.info/sct",
              "code": "246636008",
              "display": "Eye redness"
            }
          ],
          "text": "眼睛症狀"
        },
        "subject": {
          "reference": "Patient/conjunctivitis-patient-002"
        },
        "encounter": {
          "reference": "Encounter/conjunctivitis-encounter-002"
        },
        "effectiveDateTime": "2025-11-29T14:20:00+08:00",
        "valueString": "右眼結膜充血，濾泡形成，輕微分泌物"
      }
    },
    {
      "resource": {
        "resourceType": "MedicationRequest",
        "id": "conjunctivitis-med-002",
        "status": "active",
        "intent": "order",
        "medicationCodeableConcept": {
          "coding": [
            {
              "system": "http://www.whocc.no/atc",
              "code": "S01AE03",
              "display": "Ofloxacin"
            }
          ],
          "text": "歐可樂眼藥水"
        },
        "subject": {
          "reference": "Patient/conjunctivitis-patient-002"
        },
        "encounter": {
          "reference": "Encounter/conjunctivitis-encounter-002"
        },
        "authoredOn": "2025-11-29",
        "dosageInstruction": [
          {
            "text": "每日3-4次，每次1滴於患眼",
            "timing": {
              "repeat": {
                "frequency": 4,
                "period": 1,
                "periodUnit": "d"
              }
            }
          }
        ]
      }
    },
    {
      "resource": {
        "resourceType": "Patient",
        "id": "conjunctivitis-patient-003",
        "identifier": [
          {
            "system": "http://www.cgmh.org.tw/patient-id",
            "value": "C345678901"
          }
        ],
        "name": [
          {
            "family": "張",
            "given": ["志強"]
          }
        ],
        "gender": "male",
        "birthDate": "1978-11-08",
        "address": [
          {
            "use": "home",
            "text": "桃園市桃園區中正路88號5樓",
            "city": "桃園市",
            "district": "桃園區",
            "postalCode": "330"
          }
        ],
        "telecom": [
          {
            "system": "phone",
            "value": "0934-567-890",
            "use": "mobile"
          }
        ]
      }
    },
    {
      "resource": {
        "resourceType": "Encounter",
        "id": "conjunctivitis-encounter-003",
        "status": "finished",
        "class": {
          "system": "http://terminology.hl7.org/CodeSystem/v3-ActCode",
          "code": "AMB",
          "display": "ambulatory"
        },
        "subject": {
          "reference": "Patient/conjunctivitis-patient-003"
        },
        "period": {
          "start": "2025-11-30T10:15:00+08:00",
          "end": "2025-11-30T10:40:00+08:00"
        },
        "reasonCode": [
          {
            "coding": [
              {
                "system": "http://hl7.org/fhir/sid/icd-10-cm",
                "code": "H10.33",
                "display": "Acute conjunctivitis, bilateral"
              }
            ]
          }
        ]
      }
    },
    {
      "resource": {
        "resourceType": "Condition",
        "id": "conjunctivitis-condition-003",
        "clinicalStatus": {
          "coding": [
            {
              "system": "http://terminology.hl7.org/CodeSystem/condition-clinical",
              "code": "active"
            }
          ]
        },
        "verificationStatus": {
          "coding": [
            {
              "system": "http://terminology.hl7.org/CodeSystem/condition-ver-status",
              "code": "confirmed"
            }
          ]
        },
        "category": [
          {
            "coding": [
              {
                "system": "http://terminology.hl7.org/CodeSystem/condition-category",
                "code": "encounter-diagnosis"
              }
            ]
          }
        ],
        "code": {
          "coding": [
            {
              "system": "http://hl7.org/fhir/sid/icd-10-cm",
              "code": "H10.33",
              "display": "Acute conjunctivitis, bilateral"
            },
            {
              "system": "http://hl7.org/fhir/sid/icd-10-cm",
              "code": "H10",
              "display": "Conjunctivitis"
            }
          ],
          "text": "急性雙側結膜炎"
        },
        "subject": {
          "reference": "Patient/conjunctivitis-patient-003"
        },
        "encounter": {
          "reference": "Encounter/conjunctivitis-encounter-003"
        },
        "onsetDateTime": "2025-11-28"
      }
    },
    {
      "resource": {
        "resourceType": "Observation",
        "id": "conjunctivitis-obs-003",
        "status": "final",
        "category": [
          {
            "coding": [
              {
                "system": "http://terminology.hl7.org/CodeSystem/observation-category",
                "code": "exam"
              }
            ]
          }
        ],
        "code": {
          "coding": [
            {
              "system": "http://snomed.info/sct",
              "code": "246636008",
              "display": "Eye redness"
            }
          ],
          "text": "眼部檢查"
        },
        "subject": {
          "reference": "Patient/conjunctivitis-patient-003"
        },
        "encounter": {
          "reference": "Encounter/conjunctivitis-encounter-003"
        },
        "effectiveDateTime": "2025-11-30T10:15:00+08:00",
        "valueString": "雙眼結膜明顯充血，大量黏性分泌物，眼瞼輕度水腫"
      }
    },
    {
      "resource": {
        "resourceType": "MedicationRequest",
        "id": "conjunctivitis-med-003",
        "status": "active",
        "intent": "order",
        "medicationCodeableConcept": {
          "coding": [
            {
              "system": "http://www.whocc.no/atc",
              "code": "S01AA20",
              "display": "Tobramycin"
            }
          ],
          "text": "妥布黴素眼藥水"
        },
        "subject": {
          "reference": "Patient/conjunctivitis-patient-003"
        },
        "encounter": {
          "reference": "Encounter/conjunctivitis-encounter-003"
        },
        "authoredOn": "2025-11-30",
        "dosageInstruction": [
          {
            "text": "每2小時1次，每次1-2滴於雙眼",
            "timing": {
              "repeat": {
                "frequency": 8,
                "period": 1,
                "periodUnit": "d"
              }
            }
          }
        ]
      }
    },
    {
      "resource": {
        "resourceType": "Patient",
        "id": "conjunctivitis-patient-004",
        "identifier": [
          {
            "system": "http://www.cgmh.org.tw/patient-id",
            "value": "C456789012"
          }
        ],
        "name": [
          {
            "family": "陳",
            "given": ["雅婷"]
          }
        ],
        "gender": "female",
        "birthDate": "2000-05-18",
        "address": [
          {
            "use": "home",
            "text": "台中市西屯區台灣大道三段99號12樓之3",
            "city": "台中市",
            "district": "西屯區",
            "postalCode": "407"
          }
        ],
        "telecom": [
          {
            "system": "phone",
            "value": "0945-678-901",
            "use": "mobile"
          }
        ]
      }
    },
    {
      "resource": {
        "resourceType": "Encounter",
        "id": "conjunctivitis-encounter-004",
        "status": "finished",
        "class": {
          "system": "http://terminology.hl7.org/CodeSystem/v3-ActCode",
          "code": "AMB",
          "display": "ambulatory"
        },
        "subject": {
          "reference": "Patient/conjunctivitis-patient-004"
        },
        "period": {
          "start": "2025-12-01T16:30:00+08:00",
          "end": "2025-12-01T16:50:00+08:00"
        },
        "reasonCode": [
          {
            "coding": [
              {
                "system": "http://hl7.org/fhir/sid/icd-10-cm",
                "code": "H10.32",
                "display": "Acute atopic conjunctivitis"
              }
            ]
          }
        ]
      }
    },
    {
      "resource": {
        "resourceType": "Condition",
        "id": "conjunctivitis-condition-004",
        "clinicalStatus": {
          "coding": [
            {
              "system": "http://terminology.hl7.org/CodeSystem/condition-clinical",
              "code": "active"
            }
          ]
        },
        "verificationStatus": {
          "coding": [
            {
              "system": "http://terminology.hl7.org/CodeSystem/condition-ver-status",
              "code": "confirmed"
            }
          ]
        },
        "category": [
          {
            "coding": [
              {
                "system": "http://terminology.hl7.org/CodeSystem/condition-category",
                "code": "encounter-diagnosis"
              }
            ]
          }
        ],
        "code": {
          "coding": [
            {
              "system": "http://hl7.org/fhir/sid/icd-10-cm",
              "code": "H10.32",
              "display": "Acute atopic conjunctivitis"
            },
            {
              "system": "http://hl7.org/fhir/sid/icd-10-cm",
              "code": "H10",
              "display": "Conjunctivitis"
            }
          ],
          "text": "急性過敏性結膜炎"
        },
        "subject": {
          "reference": "Patient/conjunctivitis-patient-004"
        },
        "encounter": {
          "reference": "Encounter/conjunctivitis-encounter-004"
        },
        "onsetDateTime": "2025-11-30"
      }
    },
    {
      "resource": {
        "resourceType": "Observation",
        "id": "conjunctivitis-obs-004",
        "status": "final",
        "category": [
          {
            "coding": [
              {
                "system": "http://terminology.hl7.org/CodeSystem/observation-category",
                "code": "exam"
              }
            ]
          }
        ],
        "code": {
          "coding": [
            {
              "system": "http://snomed.info/sct",
              "code": "246636008",
              "display": "Eye redness"
            }
          ],
          "text": "眼部症狀"
        },
        "subject": {
          "reference": "Patient/conjunctivitis-patient-004"
        },
        "encounter": {
          "reference": "Encounter/conjunctivitis-encounter-004"
        },
        "effectiveDateTime": "2025-12-01T16:30:00+08:00",
        "valueString": "雙眼結膜充血，明顯搔癢，水樣分泌物"
      }
    },
    {
      "resource": {
        "resourceType": "MedicationRequest",
        "id": "conjunctivitis-med-004",
        "status": "active",
        "intent": "order",
        "medicationCodeableConcept": {
          "coding": [
            {
              "system": "http://www.whocc.no/atc",
              "code": "S01GX09",
              "display": "Ketotifen"
            }
          ],
          "text": "克多替芬眼藥水"
        },
        "subject": {
          "reference": "Patient/conjunctivitis-patient-004"
        },
        "encounter": {
          "reference": "Encounter/conjunctivitis-encounter-004"
        },
        "authoredOn": "2025-12-01",
        "dosageInstruction": [
          {
            "text": "每日2-3次，每次1滴於雙眼",
            "timing": {
              "repeat": {
                "frequency": 3,
                "period": 1,
                "periodUnit": "d"
              }
            }
          }
        ]
      }
    },
    {
      "resource": {
        "resourceType": "MedicationRequest",
        "id": "conjunctivitis-med-004-2",
        "status": "active",
        "intent": "order",
        "medicationCodeableConcept": {
          "coding": [
            {
              "system": "http://www.whocc.no/atc",
              "code": "S01BA01",
              "display": "Dexamethasone"
            }
          ],
          "text": "類固醇眼藥水"
        },
        "subject": {
          "reference": "Patient/conjunctivitis-patient-004"
        },
        "encounter": {
          "reference": "Encounter/conjunctivitis-encounter-004"
        },
        "authoredOn": "2025-12-01",
        "dosageInstruction": [
          {
            "text": "每日4次，每次1滴於雙眼，使用3-5天",
            "timing": {
              "repeat": {
                "frequency": 4,
                "period": 1,
                "periodUnit": "d"
              }
            }
          }
        ]
      }
    }
  ]
}
