{
  "resourceType": "Bundle",
  "type": "collection",
  "entry": [
    {
      "resource": {
        "resourceType": "Patient",
        "id": "cesarean-patient-001",
        "active": true,
        "identifier": [{"system": "http://www.cgmh.org.tw/patient-id", "value": "CS001"}],
        "name": [{"family": "Wang", "given": ["Mei", "Li"]}],
        "gender": "female",
        "birthDate": "1990-05-15"
      }
    },
    {
      "resource": {
        "resourceType": "Encounter",
        "id": "cesarean-enc-001",
        "status": "finished",
        "class": {"system": "http://terminology.hl7.org/CodeSystem/v3-ActCode", "code": "IMP", "display": "inpatient encounter"},
        "subject": {"reference": "Patient/cesarean-patient-001"},
        "period": {"start": "2025-10-15T08:00:00+08:00", "end": "2025-10-18T10:00:00+08:00"}
      }
    },
    {
      "resource": {
        "resourceType": "Condition",
        "id": "cesarean-cond-001",
        "clinicalStatus": {"coding": [{"system": "http://terminology.hl7.org/CodeSystem/condition-clinical", "code": "resolved"}]},
        "verificationStatus": {"coding": [{"system": "http://terminology.hl7.org/CodeSystem/condition-ver-status", "code": "confirmed"}]},
        "category": [{"coding": [{"system": "http://terminology.hl7.org/CodeSystem/condition-category", "code": "encounter-diagnosis"}]}],
        "code": {
          "coding": [
            {"system": "http://hl7.org/fhir/sid/icd-10-cm", "code": "O82", "display": "Delivery by cesarean section"}
          ],
          "text": "Cesarean delivery"
        },
        "subject": {"reference": "Patient/cesarean-patient-001"},
        "encounter": {"reference": "Encounter/cesarean-enc-001"},
        "recordedDate": "2025-10-15"
      }
    },
    {
      "resource": {
        "resourceType": "Procedure",
        "id": "cesarean-proc-001",
        "status": "completed",
        "category": {"coding": [{"system": "http://snomed.info/sct", "code": "387713003", "display": "Surgical procedure"}]},
        "code": {
          "coding": [
            {"system": "https://twcore.mohw.gov.tw/ig/twcore/CodeSystem/nhi-procedure", "code": "81004C", "display": "??Ｚ?"},
            {"system": "http://snomed.info/sct", "code": "11466000", "display": "Cesarean section"}
          ],
          "text": "Cesarean section"
        },
        "subject": {"reference": "Patient/cesarean-patient-001"},
        "encounter": {"reference": "Encounter/cesarean-enc-001"},
        "performedDateTime": "2025-10-15T10:30:00+08:00"
      }
    },
    {
      "resource": {
        "resourceType": "Patient",
        "id": "cesarean-patient-002",
        "active": true,
        "identifier": [{"system": "http://www.cgmh.org.tw/patient-id", "value": "CS002"}],
        "name": [{"family": "Lin", "given": ["Xiu", "Juan"]}],
        "gender": "female",
        "birthDate": "1988-08-22"
      }
    },
    {
      "resource": {
        "resourceType": "Encounter",
        "id": "cesarean-enc-002",
        "status": "finished",
        "class": {"system": "http://terminology.hl7.org/CodeSystem/v3-ActCode", "code": "IMP", "display": "inpatient encounter"},
        "subject": {"reference": "Patient/cesarean-patient-002"},
        "period": {"start": "2025-09-20T14:00:00+08:00", "end": "2025-09-23T11:00:00+08:00"}
      }
    },
    {
      "resource": {
        "resourceType": "Condition",
        "id": "cesarean-cond-002",
        "clinicalStatus": {"coding": [{"system": "http://terminology.hl7.org/CodeSystem/condition-clinical", "code": "resolved"}]},
        "verificationStatus": {"coding": [{"system": "http://terminology.hl7.org/CodeSystem/condition-ver-status", "code": "confirmed"}]},
        "category": [{"coding": [{"system": "http://terminology.hl7.org/CodeSystem/condition-category", "code": "encounter-diagnosis"}]}],
        "code": {
          "coding": [
            {"system": "http://hl7.org/fhir/sid/icd-10-cm", "code": "O82", "display": "Delivery by cesarean section"}
          ],
          "text": "Cesarean delivery"
        },
        "subject": {"reference": "Patient/cesarean-patient-002"},
        "encounter": {"reference": "Encounter/cesarean-enc-002"},
        "recordedDate": "2025-09-20"
      }
    },
    {
      "resource": {
        "resourceType": "Procedure",
        "id": "cesarean-proc-002",
        "status": "completed",
        "category": {"coding": [{"system": "http://snomed.info/sct", "code": "387713003", "display": "Surgical procedure"}]},
        "code": {
          "coding": [
            {"system": "https://twcore.mohw.gov.tw/ig/twcore/CodeSystem/nhi-procedure", "code": "81028C", "display": "?豢??批??寧"},
            {"system": "http://snomed.info/sct", "code": "177141003", "display": "Elective cesarean section"}
          ],
          "text": "Elective cesarean section"
        },
        "subject": {"reference": "Patient/cesarean-patient-002"},
        "encounter": {"reference": "Encounter/cesarean-enc-002"},
        "performedDateTime": "2025-09-20T16:00:00+08:00"
      }
    },
    {
      "resource": {
        "resourceType": "Patient",
        "id": "cesarean-patient-003",
        "active": true,
        "identifier": [{"system": "http://www.cgmh.org.tw/patient-id", "value": "CS003"}],
        "name": [{"family": "Chen", "given": ["Ya", "Ting"]}],
        "gender": "female",
        "birthDate": "1992-03-10"
      }
    },
    {
      "resource": {
        "resourceType": "Encounter",
        "id": "cesarean-enc-003",
        "status": "finished",
        "class": {"system": "http://terminology.hl7.org/CodeSystem/v3-ActCode", "code": "IMP", "display": "inpatient encounter"},
        "subject": {"reference": "Patient/cesarean-patient-003"},
        "period": {"start": "2025-11-05T20:00:00+08:00", "end": "2025-11-08T09:00:00+08:00"}
      }
    },
    {
      "resource": {
        "resourceType": "Condition",
        "id": "cesarean-cond-003",
        "clinicalStatus": {"coding": [{"system": "http://terminology.hl7.org/CodeSystem/condition-clinical", "code": "resolved"}]},
        "verificationStatus": {"coding": [{"system": "http://terminology.hl7.org/CodeSystem/condition-ver-status", "code": "confirmed"}]},
        "category": [{"coding": [{"system": "http://terminology.hl7.org/CodeSystem/condition-category", "code": "encounter-diagnosis"}]}],
        "code": {
          "coding": [
            {"system": "http://hl7.org/fhir/sid/icd-10-cm", "code": "O82", "display": "Delivery by cesarean section"}
          ],
          "text": "Cesarean delivery"
        },
        "subject": {"reference": "Patient/cesarean-patient-003"},
        "encounter": {"reference": "Encounter/cesarean-enc-003"},
        "recordedDate": "2025-11-05"
      }
    },
    {
      "resource": {
        "resourceType": "Procedure",
        "id": "cesarean-proc-003",
        "status": "completed",
        "category": {"coding": [{"system": "http://snomed.info/sct", "code": "387713003", "display": "Surgical procedure"}]},
        "code": {
          "coding": [
            {"system": "https://twcore.mohw.gov.tw/ig/twcore/CodeSystem/nhi-procedure", "code": "81029C", "display": "蝺亙??寧"},
            {"system": "http://snomed.info/sct", "code": "177152005", "display": "Emergency cesarean section"}
          ],
          "text": "Emergency cesarean section"
        },
        "subject": {"reference": "Patient/cesarean-patient-003"},
        "encounter": {"reference": "Encounter/cesarean-enc-003"},
        "performedDateTime": "2025-11-05T22:15:00+08:00"
      }
    },
    {
      "resource": {
        "resourceType": "Patient",
        "id": "cesarean-patient-004",
        "active": true,
        "identifier": [{"system": "http://www.cgmh.org.tw/patient-id", "value": "CS004"}],
        "name": [{"family": "Liu", "given": ["Hui", "Min"]}],
        "gender": "female",
        "birthDate": "1985-11-28"
      }
    },
    {
      "resource": {
        "resourceType": "Encounter",
        "id": "cesarean-enc-004",
        "status": "finished",
        "class": {"system": "http://terminology.hl7.org/CodeSystem/v3-ActCode", "code": "IMP", "display": "inpatient encounter"},
        "subject": {"reference": "Patient/cesarean-patient-004"},
        "period": {"start": "2025-08-12T09:00:00+08:00", "end": "2025-08-15T10:00:00+08:00"}
      }
    },
    {
      "resource": {
        "resourceType": "Condition",
        "id": "cesarean-cond-004",
        "clinicalStatus": {"coding": [{"system": "http://terminology.hl7.org/CodeSystem/condition-clinical", "code": "resolved"}]},
        "verificationStatus": {"coding": [{"system": "http://terminology.hl7.org/CodeSystem/condition-ver-status", "code": "confirmed"}]},
        "category": [{"coding": [{"system": "http://terminology.hl7.org/CodeSystem/condition-category", "code": "encounter-diagnosis"}]}],
        "code": {
          "coding": [
            {"system": "http://hl7.org/fhir/sid/icd-10-cm", "code": "O82", "display": "Delivery by cesarean section"}
          ],
          "text": "Cesarean delivery"
        },
        "subject": {"reference": "Patient/cesarean-patient-004"},
        "encounter": {"reference": "Encounter/cesarean-enc-004"},
        "recordedDate": "2025-08-12"
      }
    },
    {
      "resource": {
        "resourceType": "Procedure",
        "id": "cesarean-proc-004",
        "status": "completed",
        "category": {"coding": [{"system": "http://snomed.info/sct", "code": "387713003", "display": "Surgical procedure"}]},
        "code": {
          "coding": [
            {"system": "https://twcore.mohw.gov.tw/ig/twcore/CodeSystem/nhi-procedure", "code": "81004C", "display": "??Ｚ?"},
            {"system": "http://snomed.info/sct", "code": "18946005", "display": "Lower segment cesarean section"}
          ],
          "text": "Lower segment cesarean section"
        },
        "subject": {"reference": "Patient/cesarean-patient-004"},
        "encounter": {"reference": "Encounter/cesarean-enc-004"},
        "performedDateTime": "2025-08-12T11:45:00+08:00"
      }
    },
    {
      "resource": {
        "resourceType": "Patient",
        "id": "cesarean-patient-005",
        "active": true,
        "identifier": [{"system": "http://www.cgmh.org.tw/patient-id", "value": "CS005"}],
        "name": [{"family": "Huang", "given": ["Li", "Na"]}],
        "gender": "female",
        "birthDate": "1994-07-03"
      }
    },
    {
      "resource": {
        "resourceType": "Encounter",
        "id": "cesarean-enc-005",
        "status": "finished",
        "class": {"system": "http://terminology.hl7.org/CodeSystem/v3-ActCode", "code": "IMP", "display": "inpatient encounter"},
        "subject": {"reference": "Patient/cesarean-patient-005"},
        "period": {"start": "2025-10-28T15:30:00+08:00", "end": "2025-10-31T12:00:00+08:00"}
      }
    },
    {
      "resource": {
        "resourceType": "Condition",
        "id": "cesarean-cond-005",
        "clinicalStatus": {"coding": [{"system": "http://terminology.hl7.org/CodeSystem/condition-clinical", "code": "resolved"}]},
        "verificationStatus": {"coding": [{"system": "http://terminology.hl7.org/CodeSystem/condition-ver-status", "code": "confirmed"}]},
        "category": [{"coding": [{"system": "http://terminology.hl7.org/CodeSystem/condition-category", "code": "encounter-diagnosis"}]}],
        "code": {
          "coding": [
            {"system": "http://hl7.org/fhir/sid/icd-10-cm", "code": "O82", "display": "Delivery by cesarean section"}
          ],
          "text": "Cesarean delivery"
        },
        "subject": {"reference": "Patient/cesarean-patient-005"},
        "encounter": {"reference": "Encounter/cesarean-enc-005"},
        "recordedDate": "2025-10-28"
      }
    },
    {
      "resource": {
        "resourceType": "Procedure",
        "id": "cesarean-proc-005",
        "status": "completed",
        "category": {"coding": [{"system": "http://snomed.info/sct", "code": "387713003", "display": "Surgical procedure"}]},
        "code": {
          "coding": [
            {"system": "https://twcore.mohw.gov.tw/ig/twcore/CodeSystem/nhi-procedure", "code": "81028C", "display": "?豢??批??寧"},
            {"system": "http://snomed.info/sct", "code": "177141003", "display": "Elective cesarean section"}
          ],
          "text": "Elective cesarean section"
        },
        "subject": {"reference": "Patient/cesarean-patient-005"},
        "encounter": {"reference": "Encounter/cesarean-enc-005"},
        "performedDateTime": "2025-10-28T17:20:00+08:00"
      }
    },
    {
      "resource": {
        "resourceType": "Patient",
        "id": "cesarean-patient-006",
        "active": true,
        "identifier": [{"system": "http://www.cgmh.org.tw/patient-id", "value": "CS006"}],
        "name": [{"family": "Zheng", "given": ["Jing", "Yi"]}],
        "gender": "female",
        "birthDate": "1991-02-14"
      }
    },
    {
      "resource": {
        "resourceType": "Encounter",
        "id": "cesarean-enc-006",
        "status": "finished",
        "class": {"system": "http://terminology.hl7.org/CodeSystem/v3-ActCode", "code": "IMP", "display": "inpatient encounter"},
        "subject": {"reference": "Patient/cesarean-patient-006"},
        "period": {"start": "2025-09-08T11:00:00+08:00", "end": "2025-09-11T14:00:00+08:00"}
      }
    },
    {
      "resource": {
        "resourceType": "Condition",
        "id": "cesarean-cond-006",
        "clinicalStatus": {"coding": [{"system": "http://terminology.hl7.org/CodeSystem/condition-clinical", "code": "resolved"}]},
        "verificationStatus": {"coding": [{"system": "http://terminology.hl7.org/CodeSystem/condition-ver-status", "code": "confirmed"}]},
        "category": [{"coding": [{"system": "http://terminology.hl7.org/CodeSystem/condition-category", "code": "encounter-diagnosis"}]}],
        "code": {
          "coding": [
            {"system": "http://hl7.org/fhir/sid/icd-10-cm", "code": "O82", "display": "Delivery by cesarean section"}
          ],
          "text": "Cesarean delivery"
        },
        "subject": {"reference": "Patient/cesarean-patient-006"},
        "encounter": {"reference": "Encounter/cesarean-enc-006"},
        "recordedDate": "2025-09-08"
      }
    },
    {
      "resource": {
        "resourceType": "Procedure",
        "id": "cesarean-proc-006",
        "status": "completed",
        "category": {"coding": [{"system": "http://snomed.info/sct", "code": "387713003", "display": "Surgical procedure"}]},
        "code": {
          "coding": [
            {"system": "https://twcore.mohw.gov.tw/ig/twcore/CodeSystem/nhi-procedure", "code": "81004C", "display": "??Ｚ?"},
            {"system": "http://snomed.info/sct", "code": "11466000", "display": "Cesarean section"}
          ],
          "text": "Cesarean section"
        },
        "subject": {"reference": "Patient/cesarean-patient-006"},
        "encounter": {"reference": "Encounter/cesarean-enc-006"},
        "performedDateTime": "2025-09-08T13:30:00+08:00"
      }
    },
    {
      "resource": {
        "resourceType": "Patient",
        "id": "cesarean-patient-007",
        "active": true,
        "identifier": [{"system": "http://www.cgmh.org.tw/patient-id", "value": "CS007"}],
        "name": [{"family": "Wu", "given": ["Xiao", "Qing"]}],
        "gender": "female",
        "birthDate": "1987-09-19"
      }
    },
    {
      "resource": {
        "resourceType": "Encounter",
        "id": "cesarean-enc-007",
        "status": "finished",
        "class": {"system": "http://terminology.hl7.org/CodeSystem/v3-ActCode", "code": "IMP", "display": "inpatient encounter"},
        "subject": {"reference": "Patient/cesarean-patient-007"},
        "period": {"start": "2025-11-18T18:00:00+08:00", "end": "2025-11-21T10:00:00+08:00"}
      }
    },
    {
      "resource": {
        "resourceType": "Condition",
        "id": "cesarean-cond-007",
        "clinicalStatus": {"coding": [{"system": "http://terminology.hl7.org/CodeSystem/condition-clinical", "code": "resolved"}]},
        "verificationStatus": {"coding": [{"system": "http://terminology.hl7.org/CodeSystem/condition-ver-status", "code": "confirmed"}]},
        "category": [{"coding": [{"system": "http://terminology.hl7.org/CodeSystem/condition-category", "code": "encounter-diagnosis"}]}],
        "code": {
          "coding": [
            {"system": "http://hl7.org/fhir/sid/icd-10-cm", "code": "O82", "display": "Delivery by cesarean section"}
          ],
          "text": "Cesarean delivery"
        },
        "subject": {"reference": "Patient/cesarean-patient-007"},
        "encounter": {"reference": "Encounter/cesarean-enc-007"},
        "recordedDate": "2025-11-18"
      }
    },
    {
      "resource": {
        "resourceType": "Procedure",
        "id": "cesarean-proc-007",
        "status": "completed",
        "category": {"coding": [{"system": "http://snomed.info/sct", "code": "387713003", "display": "Surgical procedure"}]},
        "code": {
          "coding": [
            {"system": "https://twcore.mohw.gov.tw/ig/twcore/CodeSystem/nhi-procedure", "code": "81029C", "display": "蝺亙??寧"},
            {"system": "http://snomed.info/sct", "code": "177152005", "display": "Emergency cesarean section"}
          ],
          "text": "Emergency cesarean section"
        },
        "subject": {"reference": "Patient/cesarean-patient-007"},
        "encounter": {"reference": "Encounter/cesarean-enc-007"},
        "performedDateTime": "2025-11-18T20:45:00+08:00"
      }
    },
    {
      "resource": {
        "resourceType": "Patient",
        "id": "cesarean-patient-008",
        "active": true,
        "identifier": [{"system": "http://www.cgmh.org.tw/patient-id", "value": "CS008"}],
        "name": [{"family": "Xu", "given": ["Wan", "Ru"]}],
        "gender": "female",
        "birthDate": "1993-12-05"
      }
    },
    {
      "resource": {
        "resourceType": "Encounter",
        "id": "cesarean-enc-008",
        "status": "finished",
        "class": {"system": "http://terminology.hl7.org/CodeSystem/v3-ActCode", "code": "IMP", "display": "inpatient encounter"},
        "subject": {"reference": "Patient/cesarean-patient-008"},
        "period": {"start": "2025-10-02T07:30:00+08:00", "end": "2025-10-05T11:00:00+08:00"}
      }
    },
    {
      "resource": {
        "resourceType": "Condition",
        "id": "cesarean-cond-008",
        "clinicalStatus": {"coding": [{"system": "http://terminology.hl7.org/CodeSystem/condition-clinical", "code": "resolved"}]},
        "verificationStatus": {"coding": [{"system": "http://terminology.hl7.org/CodeSystem/condition-ver-status", "code": "confirmed"}]},
        "category": [{"coding": [{"system": "http://terminology.hl7.org/CodeSystem/condition-category", "code": "encounter-diagnosis"}]}],
        "code": {
          "coding": [
            {"system": "http://hl7.org/fhir/sid/icd-10-cm", "code": "O82", "display": "Delivery by cesarean section"}
          ],
          "text": "Cesarean delivery"
        },
        "subject": {"reference": "Patient/cesarean-patient-008"},
        "encounter": {"reference": "Encounter/cesarean-enc-008"},
        "recordedDate": "2025-10-02"
      }
    },
    {
      "resource": {
        "resourceType": "Procedure",
        "id": "cesarean-proc-008",
        "status": "completed",
        "category": {"coding": [{"system": "http://snomed.info/sct", "code": "387713003", "display": "Surgical procedure"}]},
        "code": {
          "coding": [
            {"system": "https://twcore.mohw.gov.tw/ig/twcore/CodeSystem/nhi-procedure", "code": "81028C", "display": "?豢??批??寧"},
            {"system": "http://snomed.info/sct", "code": "177141003", "display": "Elective cesarean section"}
          ],
          "text": "Elective cesarean section"
        },
        "subject": {"reference": "Patient/cesarean-patient-008"},
        "encounter": {"reference": "Encounter/cesarean-enc-008"},
        "performedDateTime": "2025-10-02T09:15:00+08:00"
      }
    }
  ]
}

