{
  "resourceType": "Bundle",
  "type": "collection",
  "entry": [
    {
      "resource": {
        "resourceType": "Patient",
        "id": "ehr-patient-001",
        "active": true,
        "identifier": [
          {
            "system": "http://www.cgmh.org.tw/patient-id",
            "value": "E001234567"
          }
        ],
        "name": [
          {
            "family": "林",
            "given": ["志明"]
          }
        ],
        "gender": "male",
        "birthDate": "1975-06-10",
        "address": [
          {
            "use": "home",
            "text": "台北市信義區松仁路100號3樓",
            "city": "台北市",
            "district": "信義區",
            "postalCode": "110"
          }
        ],
        "telecom": [
          {
            "system": "phone",
            "value": "0912-111-222",
            "use": "mobile"
          }
        ]
      }
    },
    {
      "resource": {
        "resourceType": "Encounter",
        "id": "ehr-encounter-001",
        "status": "finished",
        "class": {
          "system": "http://terminology.hl7.org/CodeSystem/v3-ActCode",
          "code": "AMB",
          "display": "ambulatory"
        },
        "subject": {
          "reference": "Patient/ehr-patient-001"
        },
        "period": {
          "start": "2025-11-15T10:30:00+08:00",
          "end": "2025-11-15T11:00:00+08:00"
        }
      }
    },
    {
      "resource": {
        "resourceType": "DocumentReference",
        "id": "ehr-doc-001",
        "status": "current",
        "type": {
          "coding": [
            {
              "system": "http://loinc.org",
              "code": "34133-9",
              "display": "Summarization of episode note"
            }
          ]
        },
        "subject": {
          "reference": "Patient/ehr-patient-001"
        },
        "date": "2025-11-15T11:00:00+08:00",
        "content": [
          {
            "attachment": {
              "contentType": "text/plain",
              "title": "門診病歷摘要"
            }
          }
        ]
      }
    },
    {
      "resource": {
        "resourceType": "Observation",
        "id": "ehr-obs-001",
        "status": "final",
        "category": [
          {
            "coding": [
              {
                "system": "http://terminology.hl7.org/CodeSystem/observation-category",
                "code": "laboratory"
              }
            ]
          }
        ],
        "code": {
          "coding": [
            {
              "system": "http://loinc.org",
              "code": "2339-0",
              "display": "Glucose"
            }
          ]
        },
        "subject": {
          "reference": "Patient/ehr-patient-001"
        },
        "effectiveDateTime": "2025-11-15T10:30:00+08:00",
        "valueQuantity": {
          "value": 95,
          "unit": "mg/dL"
        }
      }
    },
    {
      "resource": {
        "resourceType": "Patient",
        "id": "ehr-patient-002",
        "active": true,
        "identifier": [
          {
            "system": "http://www.cgmh.org.tw/patient-id",
            "value": "E002345678"
          }
        ],
        "name": [
          {
            "family": "陳",
            "given": ["美玲"]
          }
        ],
        "gender": "female",
        "birthDate": "1988-09-22",
        "address": [
          {
            "use": "home",
            "text": "新北市板橋區文化路二段200號8樓",
            "city": "新北市",
            "district": "板橋區",
            "postalCode": "220"
          }
        ],
        "telecom": [
          {
            "system": "phone",
            "value": "0923-222-333",
            "use": "mobile"
          }
        ]
      }
    },
    {
      "resource": {
        "resourceType": "Encounter",
        "id": "ehr-encounter-002",
        "status": "finished",
        "class": {
          "system": "http://terminology.hl7.org/CodeSystem/v3-ActCode",
          "code": "AMB",
          "display": "ambulatory"
        },
        "subject": {
          "reference": "Patient/ehr-patient-002"
        },
        "period": {
          "start": "2025-11-18T14:00:00+08:00",
          "end": "2025-11-18T14:30:00+08:00"
        }
      }
    },
    {
      "resource": {
        "resourceType": "MedicationRequest",
        "id": "ehr-med-002",
        "status": "completed",
        "intent": "order",
        "medicationCodeableConcept": {
          "coding": [
            {
              "system": "http://www.whocc.no/atc",
              "code": "N02BE01",
              "display": "Paracetamol"
            }
          ],
          "text": "普拿疼"
        },
        "subject": {
          "reference": "Patient/ehr-patient-002"
        },
        "authoredOn": "2025-11-18"
      }
    },
    {
      "resource": {
        "resourceType": "Procedure",
        "id": "ehr-proc-002",
        "status": "completed",
        "code": {
          "coding": [
            {
              "system": "http://snomed.info/sct",
              "code": "5880005",
              "display": "Physical examination"
            }
          ],
          "text": "身體檢查"
        },
        "subject": {
          "reference": "Patient/ehr-patient-002"
        },
        "performedDateTime": "2025-11-18T14:00:00+08:00"
      }
    },
    {
      "resource": {
        "resourceType": "Patient",
        "id": "ehr-patient-003",
        "active": true,
        "identifier": [
          {
            "system": "http://www.cgmh.org.tw/patient-id",
            "value": "E003456789"
          }
        ],
        "name": [
          {
            "family": "黃",
            "given": ["建國"]
          }
        ],
        "gender": "male",
        "birthDate": "1965-03-30",
        "address": [
          {
            "use": "home",
            "text": "桃園市桃園區中正路300號5樓之2",
            "city": "桃園市",
            "district": "桃園區",
            "postalCode": "330"
          }
        ],
        "telecom": [
          {
            "system": "phone",
            "value": "0934-333-444",
            "use": "mobile"
          }
        ]
      }
    },
    {
      "resource": {
        "resourceType": "Encounter",
        "id": "ehr-encounter-003",
        "status": "finished",
        "class": {
          "system": "http://terminology.hl7.org/CodeSystem/v3-ActCode",
          "code": "AMB",
          "display": "ambulatory"
        },
        "subject": {
          "reference": "Patient/ehr-patient-003"
        },
        "period": {
          "start": "2025-11-20T09:00:00+08:00",
          "end": "2025-11-20T09:45:00+08:00"
        }
      }
    },
    {
      "resource": {
        "resourceType": "Patient",
        "id": "ehr-patient-004",
        "active": true,
        "identifier": [
          {
            "system": "http://www.cgmh.org.tw/patient-id",
            "value": "E004567890"
          }
        ],
        "name": [
          {
            "family": "吳",
            "given": ["淑芬"]
          }
        ],
        "gender": "female",
        "birthDate": "1992-12-05",
        "address": [
          {
            "use": "home",
            "text": "台中市西屯區台灣大道四段500號12樓",
            "city": "台中市",
            "district": "西屯區",
            "postalCode": "407"
          }
        ],
        "telecom": [
          {
            "system": "phone",
            "value": "0945-444-555",
            "use": "mobile"
          }
        ]
      }
    },
    {
      "resource": {
        "resourceType": "Encounter",
        "id": "ehr-encounter-004",
        "status": "finished",
        "class": {
          "system": "http://terminology.hl7.org/CodeSystem/v3-ActCode",
          "code": "AMB",
          "display": "ambulatory"
        },
        "subject": {
          "reference": "Patient/ehr-patient-004"
        },
        "period": {
          "start": "2025-11-22T16:00:00+08:00",
          "end": "2025-11-22T16:30:00+08:00"
        }
      }
    },
    {
      "resource": {
        "resourceType": "DiagnosticReport",
        "id": "ehr-diag-004",
        "status": "final",
        "category": [
          {
            "coding": [
              {
                "system": "http://terminology.hl7.org/CodeSystem/v2-0074",
                "code": "RAD",
                "display": "Radiology"
              }
            ]
          }
        ],
        "code": {
          "coding": [
            {
              "system": "http://loinc.org",
              "code": "30954-2",
              "display": "Chest X-ray"
            }
          ]
        },
        "subject": {
          "reference": "Patient/ehr-patient-004"
        },
        "effectiveDateTime": "2025-11-22T16:00:00+08:00"
      }
    },
    {
      "resource": {
        "resourceType": "Patient",
        "id": "ehr-patient-005",
        "active": true,
        "identifier": [
          {
            "system": "http://www.cgmh.org.tw/patient-id",
            "value": "E005678901"
          }
        ],
        "name": [
          {
            "family": "張",
            "given": ["文華"]
          }
        ],
        "gender": "male",
        "birthDate": "1980-07-18",
        "address": [
          {
            "use": "home",
            "text": "高雄市前鎮區一心路88號6樓之1",
            "city": "高雄市",
            "district": "前鎮區",
            "postalCode": "806"
          }
        ],
        "telecom": [
          {
            "system": "phone",
            "value": "0956-555-666",
            "use": "mobile"
          }
        ]
      }
    },
    {
      "resource": {
        "resourceType": "Encounter",
        "id": "ehr-encounter-005",
        "status": "finished",
        "class": {
          "system": "http://terminology.hl7.org/CodeSystem/v3-ActCode",
          "code": "AMB",
          "display": "ambulatory"
        },
        "subject": {
          "reference": "Patient/ehr-patient-005"
        },
        "period": {
          "start": "2025-11-25T11:30:00+08:00",
          "end": "2025-11-25T12:00:00+08:00"
        }
      }
    },
    {
      "resource": {
        "resourceType": "DocumentReference",
        "id": "ehr-doc-005",
        "status": "current",
        "type": {
          "coding": [
            {
              "system": "http://loinc.org",
              "code": "11506-3",
              "display": "Progress note"
            }
          ]
        },
        "subject": {
          "reference": "Patient/ehr-patient-005"
        },
        "date": "2025-11-25T12:00:00+08:00",
        "content": [
          {
            "attachment": {
              "contentType": "text/plain",
              "title": "病程記錄"
            }
          }
        ]
      }
    },
    {
      "resource": {
        "resourceType": "Observation",
        "id": "ehr-obs-005",
        "status": "final",
        "category": [
          {
            "coding": [
              {
                "system": "http://terminology.hl7.org/CodeSystem/observation-category",
                "code": "laboratory"
              }
            ]
          }
        ],
        "code": {
          "coding": [
            {
              "system": "http://loinc.org",
              "code": "718-7",
              "display": "Hemoglobin"
            }
          ]
        },
        "subject": {
          "reference": "Patient/ehr-patient-005"
        },
        "effectiveDateTime": "2025-11-25T11:30:00+08:00",
        "valueQuantity": {
          "value": 14.5,
          "unit": "g/dL"
        }
      }
    },
    {
      "resource": {
        "resourceType": "MedicationRequest",
        "id": "ehr-med-005",
        "status": "active",
        "intent": "order",
        "medicationCodeableConcept": {
          "coding": [
            {
              "system": "http://www.whocc.no/atc",
              "code": "C09AA02",
              "display": "Enalapril"
            }
          ],
          "text": "血管收縮素轉化酶抑制劑"
        },
        "subject": {
          "reference": "Patient/ehr-patient-005"
        },
        "authoredOn": "2025-11-25"
      }
    }
  ]
}
