{
  "resourceType": "Bundle",
  "type": "collection",
  "entry": [
    {
      "resource": {
        "resourceType": "Patient",
        "id": "asthma-child-001",
        "active": true,
        "identifier": [{"system": "http://www.cgmh.org.tw/patient-id", "value": "AC001"}],
        "name": [{"family": "Chen", "given": ["Xiao", "Ming"]}],
        "gender": "male",
        "birthDate": "2015-06-15"
      }
    },
    {
      "resource": {
        "resourceType": "Encounter",
        "id": "asthma-ed-001",
        "status": "finished",
        "class": {"system": "http://terminology.hl7.org/CodeSystem/v3-ActCode", "code": "EMER", "display": "emergency"},
        "subject": {"reference": "Patient/asthma-child-001"},
        "period": {"start": "2025-09-15T14:30:00+08:00", "end": "2025-09-15T18:00:00+08:00"}
      }
    },
    {
      "resource": {
        "resourceType": "Condition",
        "id": "asthma-cond-001",
        "clinicalStatus": {"coding": [{"system": "http://terminology.hl7.org/CodeSystem/condition-clinical", "code": "active"}]},
        "verificationStatus": {"coding": [{"system": "http://terminology.hl7.org/CodeSystem/condition-ver-status", "code": "confirmed"}]},
        "category": [{"coding": [{"system": "http://terminology.hl7.org/CodeSystem/condition-category", "code": "encounter-diagnosis"}]}],
        "code": {
          "coding": [
            {"system": "http://hl7.org/fhir/sid/icd-10-cm", "code": "J45.0", "display": "Predominantly allergic asthma"},
            {"system": "http://hl7.org/fhir/sid/icd-10-cm", "code": "J45", "display": "Asthma"}
          ],
          "text": "Allergic asthma"
        },
        "subject": {"reference": "Patient/asthma-child-001"},
        "encounter": {"reference": "Encounter/asthma-ed-001"},
        "onsetDateTime": "2025-09-15",
        "recordedDate": "2025-09-15"
      }
    },
    {
      "resource": {
        "resourceType": "Patient",
        "id": "asthma-child-002",
        "active": true,
        "identifier": [{"system": "http://www.cgmh.org.tw/patient-id", "value": "AC002"}],
        "name": [{"family": "Lin", "given": ["Ya", "Ting"]}],
        "gender": "female",
        "birthDate": "2012-03-22"
      }
    },
    {
      "resource": {
        "resourceType": "Encounter",
        "id": "asthma-ed-002",
        "status": "finished",
        "class": {"system": "http://terminology.hl7.org/CodeSystem/v3-ActCode", "code": "EMER", "display": "emergency"},
        "subject": {"reference": "Patient/asthma-child-002"},
        "period": {"start": "2025-10-03T20:15:00+08:00", "end": "2025-10-03T23:30:00+08:00"}
      }
    },
    {
      "resource": {
        "resourceType": "Condition",
        "id": "asthma-cond-002",
        "clinicalStatus": {"coding": [{"system": "http://terminology.hl7.org/CodeSystem/condition-clinical", "code": "active"}]},
        "verificationStatus": {"coding": [{"system": "http://terminology.hl7.org/CodeSystem/condition-ver-status", "code": "confirmed"}]},
        "category": [{"coding": [{"system": "http://terminology.hl7.org/CodeSystem/condition-category", "code": "encounter-diagnosis"}]}],
        "code": {
          "coding": [
            {"system": "http://hl7.org/fhir/sid/icd-10-cm", "code": "J45.5", "display": "Severe persistent asthma"},
            {"system": "http://hl7.org/fhir/sid/icd-10-cm", "code": "J45", "display": "Asthma"}
          ],
          "text": "Severe persistent asthma"
        },
        "subject": {"reference": "Patient/asthma-child-002"},
        "encounter": {"reference": "Encounter/asthma-ed-002"},
        "onsetDateTime": "2025-10-03",
        "recordedDate": "2025-10-03"
      }
    },
    {
      "resource": {
        "resourceType": "Patient",
        "id": "asthma-child-003",
        "active": true,
        "identifier": [{"system": "http://www.cgmh.org.tw/patient-id", "value": "AC003"}],
        "name": [{"family": "Wu", "given": ["Jia", "Hao"]}],
        "gender": "male",
        "birthDate": "2017-11-08"
      }
    },
    {
      "resource": {
        "resourceType": "Encounter",
        "id": "asthma-ed-003",
        "status": "finished",
        "class": {"system": "http://terminology.hl7.org/CodeSystem/v3-ActCode", "code": "EMER", "display": "emergency"},
        "subject": {"reference": "Patient/asthma-child-003"},
        "period": {"start": "2025-08-28T03:45:00+08:00", "end": "2025-08-28T07:20:00+08:00"}
      }
    },
    {
      "resource": {
        "resourceType": "Condition",
        "id": "asthma-cond-003",
        "clinicalStatus": {"coding": [{"system": "http://terminology.hl7.org/CodeSystem/condition-clinical", "code": "active"}]},
        "verificationStatus": {"coding": [{"system": "http://terminology.hl7.org/CodeSystem/condition-ver-status", "code": "confirmed"}]},
        "category": [{"coding": [{"system": "http://terminology.hl7.org/CodeSystem/condition-category", "code": "encounter-diagnosis"}]}],
        "code": {
          "coding": [
            {"system": "http://hl7.org/fhir/sid/icd-10-cm", "code": "J45.9", "display": "Asthma, unspecified"},
            {"system": "http://hl7.org/fhir/sid/icd-10-cm", "code": "J45", "display": "Asthma"}
          ],
          "text": "Asthma attack"
        },
        "subject": {"reference": "Patient/asthma-child-003"},
        "encounter": {"reference": "Encounter/asthma-ed-003"},
        "onsetDateTime": "2025-08-28",
        "recordedDate": "2025-08-28"
      }
    },
    {
      "resource": {
        "resourceType": "Patient",
        "id": "asthma-child-004",
        "active": true,
        "identifier": [{"system": "http://www.cgmh.org.tw/patient-id", "value": "AC004"}],
        "name": [{"family": "Huang", "given": ["Yu", "Xuan"]}],
        "gender": "female",
        "birthDate": "2010-01-30"
      }
    },
    {
      "resource": {
        "resourceType": "Encounter",
        "id": "asthma-ed-004",
        "status": "finished",
        "class": {"system": "http://terminology.hl7.org/CodeSystem/v3-ActCode", "code": "EMER", "display": "emergency"},
        "subject": {"reference": "Patient/asthma-child-004"},
        "period": {"start": "2025-11-01T19:00:00+08:00", "end": "2025-11-01T22:45:00+08:00"}
      }
    },
    {
      "resource": {
        "resourceType": "Condition",
        "id": "asthma-cond-004",
        "clinicalStatus": {"coding": [{"system": "http://terminology.hl7.org/CodeSystem/condition-clinical", "code": "active"}]},
        "verificationStatus": {"coding": [{"system": "http://terminology.hl7.org/CodeSystem/condition-ver-status", "code": "confirmed"}]},
        "category": [{"coding": [{"system": "http://terminology.hl7.org/CodeSystem/condition-category", "code": "encounter-diagnosis"}]}],
        "code": {
          "coding": [
            {"system": "http://hl7.org/fhir/sid/icd-10-cm", "code": "J45.4", "display": "Moderate persistent asthma"},
            {"system": "http://hl7.org/fhir/sid/icd-10-cm", "code": "J45", "display": "Asthma"}
          ],
          "text": "Moderate persistent asthma"
        },
        "subject": {"reference": "Patient/asthma-child-004"},
        "encounter": {"reference": "Encounter/asthma-ed-004"},
        "onsetDateTime": "2025-11-01",
        "recordedDate": "2025-11-01"
      }
    },
    {
      "resource": {
        "resourceType": "Patient",
        "id": "asthma-child-005",
        "active": true,
        "identifier": [{"system": "http://www.cgmh.org.tw/patient-id", "value": "AC005"}],
        "name": [{"family": "Zhang", "given": ["Wei", "Lun"]}],
        "gender": "male",
        "birthDate": "2014-09-12"
      }
    },
    {
      "resource": {
        "resourceType": "Encounter",
        "id": "asthma-ed-005",
        "status": "finished",
        "class": {"system": "http://terminology.hl7.org/CodeSystem/v3-ActCode", "code": "EMER", "display": "emergency"},
        "subject": {"reference": "Patient/asthma-child-005"},
        "period": {"start": "2025-10-20T11:30:00+08:00", "end": "2025-10-20T15:00:00+08:00"}
      }
    },
    {
      "resource": {
        "resourceType": "Condition",
        "id": "asthma-cond-005",
        "clinicalStatus": {"coding": [{"system": "http://terminology.hl7.org/CodeSystem/condition-clinical", "code": "active"}]},
        "verificationStatus": {"coding": [{"system": "http://terminology.hl7.org/CodeSystem/condition-ver-status", "code": "confirmed"}]},
        "category": [{"coding": [{"system": "http://terminology.hl7.org/CodeSystem/condition-category", "code": "encounter-diagnosis"}]}],
        "code": {
          "coding": [
            {"system": "http://hl7.org/fhir/sid/icd-10-cm", "code": "J45.1", "display": "Nonallergic asthma"},
            {"system": "http://hl7.org/fhir/sid/icd-10-cm", "code": "J45", "display": "Asthma"}
          ],
          "text": "Nonallergic asthma"
        },
        "subject": {"reference": "Patient/asthma-child-005"},
        "encounter": {"reference": "Encounter/asthma-ed-005"},
        "onsetDateTime": "2025-10-20",
        "recordedDate": "2025-10-20"
      }
    }
  ]
}
