{
  "resourceType": "Bundle",
  "type": "collection",
  "entry": [
    {
      "resource": {
        "resourceType": "Patient",
        "id": "revisit-patient-001",
        "active": true,
        "identifier": [{"system": "http://www.cgmh.org.tw/patient-id", "value": "RV001"}],
        "name": [{"family": "Lin", "given": ["Jia", "Wei"]}],
        "gender": "male",
        "birthDate": "1985-03-15"
      }
    },
    {
      "resource": {
        "resourceType": "Encounter",
        "id": "revisit-enc-001-1",
        "status": "finished",
        "class": {"system": "http://terminology.hl7.org/CodeSystem/v3-ActCode", "code": "AMB", "display": "ambulatory"},
        "subject": {"reference": "Patient/revisit-patient-001"},
        "period": {"start": "2025-11-20T09:00:00+08:00", "end": "2025-11-20T09:30:00+08:00"}
      }
    },
    {
      "resource": {
        "resourceType": "Condition",
        "id": "revisit-cond-001-1",
        "clinicalStatus": {"coding": [{"system": "http://terminology.hl7.org/CodeSystem/condition-clinical", "code": "active"}]},
        "verificationStatus": {"coding": [{"system": "http://terminology.hl7.org/CodeSystem/condition-ver-status", "code": "confirmed"}]},
        "category": [{"coding": [{"system": "http://terminology.hl7.org/CodeSystem/condition-category", "code": "encounter-diagnosis"}]}],
        "code": {
          "coding": [
            {"system": "http://hl7.org/fhir/sid/icd-10-cm", "code": "J06.9", "display": "Acute upper respiratory infection, unspecified"},
            {"system": "http://hl7.org/fhir/sid/icd-10-cm", "code": "J06", "display": "Acute upper respiratory infections"}
          ],
          "text": "Acute URI"
        },
        "subject": {"reference": "Patient/revisit-patient-001"},
        "encounter": {"reference": "Encounter/revisit-enc-001-1"},
        "recordedDate": "2025-11-20"
      }
    },
    {
      "resource": {
        "resourceType": "Encounter",
        "id": "revisit-enc-001-2",
        "status": "finished",
        "class": {"system": "http://terminology.hl7.org/CodeSystem/v3-ActCode", "code": "AMB", "display": "ambulatory"},
        "subject": {"reference": "Patient/revisit-patient-001"},
        "period": {"start": "2025-11-20T15:00:00+08:00", "end": "2025-11-20T15:30:00+08:00"}
      }
    },
    {
      "resource": {
        "resourceType": "Condition",
        "id": "revisit-cond-001-2",
        "clinicalStatus": {"coding": [{"system": "http://terminology.hl7.org/CodeSystem/condition-clinical", "code": "active"}]},
        "verificationStatus": {"coding": [{"system": "http://terminology.hl7.org/CodeSystem/condition-ver-status", "code": "confirmed"}]},
        "category": [{"coding": [{"system": "http://terminology.hl7.org/CodeSystem/condition-category", "code": "encounter-diagnosis"}]}],
        "code": {
          "coding": [
            {"system": "http://hl7.org/fhir/sid/icd-10-cm", "code": "J06.9", "display": "Acute upper respiratory infection, unspecified"},
            {"system": "http://hl7.org/fhir/sid/icd-10-cm", "code": "J06", "display": "Acute upper respiratory infections"}
          ],
          "text": "Acute URI"
        },
        "subject": {"reference": "Patient/revisit-patient-001"},
        "encounter": {"reference": "Encounter/revisit-enc-001-2"},
        "recordedDate": "2025-11-20"
      }
    },
    {
      "resource": {
        "resourceType": "Patient",
        "id": "revisit-patient-002",
        "active": true,
        "identifier": [{"system": "http://www.cgmh.org.tw/patient-id", "value": "RV002"}],
        "name": [{"family": "Wu", "given": ["Xiao", "Hua"]}],
        "gender": "female",
        "birthDate": "1992-07-22"
      }
    },
    {
      "resource": {
        "resourceType": "Encounter",
        "id": "revisit-enc-002-1",
        "status": "finished",
        "class": {"system": "http://terminology.hl7.org/CodeSystem/v3-ActCode", "code": "AMB", "display": "ambulatory"},
        "subject": {"reference": "Patient/revisit-patient-002"},
        "period": {"start": "2025-10-15T10:30:00+08:00", "end": "2025-10-15T11:00:00+08:00"}
      }
    },
    {
      "resource": {
        "resourceType": "Condition",
        "id": "revisit-cond-002-1",
        "clinicalStatus": {"coding": [{"system": "http://terminology.hl7.org/CodeSystem/condition-clinical", "code": "active"}]},
        "verificationStatus": {"coding": [{"system": "http://terminology.hl7.org/CodeSystem/condition-ver-status", "code": "confirmed"}]},
        "category": [{"coding": [{"system": "http://terminology.hl7.org/CodeSystem/condition-category", "code": "encounter-diagnosis"}]}],
        "code": {
          "coding": [
            {"system": "http://hl7.org/fhir/sid/icd-10-cm", "code": "K29.70", "display": "Gastritis, unspecified, without bleeding"},
            {"system": "http://hl7.org/fhir/sid/icd-10-cm", "code": "K29", "display": "Gastritis and duodenitis"}
          ],
          "text": "Gastritis"
        },
        "subject": {"reference": "Patient/revisit-patient-002"},
        "encounter": {"reference": "Encounter/revisit-enc-002-1"},
        "recordedDate": "2025-10-15"
      }
    },
    {
      "resource": {
        "resourceType": "Encounter",
        "id": "revisit-enc-002-2",
        "status": "finished",
        "class": {"system": "http://terminology.hl7.org/CodeSystem/v3-ActCode", "code": "AMB", "display": "ambulatory"},
        "subject": {"reference": "Patient/revisit-patient-002"},
        "period": {"start": "2025-10-15T16:00:00+08:00", "end": "2025-10-15T16:30:00+08:00"}
      }
    },
    {
      "resource": {
        "resourceType": "Condition",
        "id": "revisit-cond-002-2",
        "clinicalStatus": {"coding": [{"system": "http://terminology.hl7.org/CodeSystem/condition-clinical", "code": "active"}]},
        "verificationStatus": {"coding": [{"system": "http://terminology.hl7.org/CodeSystem/condition-ver-status", "code": "confirmed"}]},
        "category": [{"coding": [{"system": "http://terminology.hl7.org/CodeSystem/condition-category", "code": "encounter-diagnosis"}]}],
        "code": {
          "coding": [
            {"system": "http://hl7.org/fhir/sid/icd-10-cm", "code": "K29.70", "display": "Gastritis, unspecified, without bleeding"},
            {"system": "http://hl7.org/fhir/sid/icd-10-cm", "code": "K29", "display": "Gastritis and duodenitis"}
          ],
          "text": "Gastritis"
        },
        "subject": {"reference": "Patient/revisit-patient-002"},
        "encounter": {"reference": "Encounter/revisit-enc-002-2"},
        "recordedDate": "2025-10-15"
      }
    },
    {
      "resource": {
        "resourceType": "Patient",
        "id": "revisit-patient-003",
        "active": true,
        "identifier": [{"system": "http://www.cgmh.org.tw/patient-id", "value": "RV003"}],
        "name": [{"family": "Zheng", "given": ["Ming", "Jun"]}],
        "gender": "male",
        "birthDate": "1978-11-05"
      }
    },
    {
      "resource": {
        "resourceType": "Encounter",
        "id": "revisit-enc-003-1",
        "status": "finished",
        "class": {"system": "http://terminology.hl7.org/CodeSystem/v3-ActCode", "code": "AMB", "display": "ambulatory"},
        "subject": {"reference": "Patient/revisit-patient-003"},
        "period": {"start": "2025-09-10T08:30:00+08:00", "end": "2025-09-10T09:00:00+08:00"}
      }
    },
    {
      "resource": {
        "resourceType": "Condition",
        "id": "revisit-cond-003-1",
        "clinicalStatus": {"coding": [{"system": "http://terminology.hl7.org/CodeSystem/condition-clinical", "code": "active"}]},
        "verificationStatus": {"coding": [{"system": "http://terminology.hl7.org/CodeSystem/condition-ver-status", "code": "confirmed"}]},
        "category": [{"coding": [{"system": "http://terminology.hl7.org/CodeSystem/condition-category", "code": "encounter-diagnosis"}]}],
        "code": {
          "coding": [
            {"system": "http://hl7.org/fhir/sid/icd-10-cm", "code": "M54.5", "display": "Low back pain"},
            {"system": "http://hl7.org/fhir/sid/icd-10-cm", "code": "M54", "display": "Dorsalgia"}
          ],
          "text": "Low back pain"
        },
        "subject": {"reference": "Patient/revisit-patient-003"},
        "encounter": {"reference": "Encounter/revisit-enc-003-1"},
        "recordedDate": "2025-09-10"
      }
    },
    {
      "resource": {
        "resourceType": "Encounter",
        "id": "revisit-enc-003-2",
        "status": "finished",
        "class": {"system": "http://terminology.hl7.org/CodeSystem/v3-ActCode", "code": "AMB", "display": "ambulatory"},
        "subject": {"reference": "Patient/revisit-patient-003"},
        "period": {"start": "2025-09-10T14:30:00+08:00", "end": "2025-09-10T15:00:00+08:00"}
      }
    },
    {
      "resource": {
        "resourceType": "Condition",
        "id": "revisit-cond-003-2",
        "clinicalStatus": {"coding": [{"system": "http://terminology.hl7.org/CodeSystem/condition-clinical", "code": "active"}]},
        "verificationStatus": {"coding": [{"system": "http://terminology.hl7.org/CodeSystem/condition-ver-status", "code": "confirmed"}]},
        "category": [{"coding": [{"system": "http://terminology.hl7.org/CodeSystem/condition-category", "code": "encounter-diagnosis"}]}],
        "code": {
          "coding": [
            {"system": "http://hl7.org/fhir/sid/icd-10-cm", "code": "M54.5", "display": "Low back pain"},
            {"system": "http://hl7.org/fhir/sid/icd-10-cm", "code": "M54", "display": "Dorsalgia"}
          ],
          "text": "Low back pain"
        },
        "subject": {"reference": "Patient/revisit-patient-003"},
        "encounter": {"reference": "Encounter/revisit-enc-003-2"},
        "recordedDate": "2025-09-10"
      }
    },
    {
      "resource": {
        "resourceType": "Patient",
        "id": "revisit-patient-004",
        "active": true,
        "identifier": [{"system": "http://www.cgmh.org.tw/patient-id", "value": "RV004"}],
        "name": [{"family": "Xu", "given": ["Li", "Fang"]}],
        "gender": "female",
        "birthDate": "1988-04-18"
      }
    },
    {
      "resource": {
        "resourceType": "Encounter",
        "id": "revisit-enc-004-1",
        "status": "finished",
        "class": {"system": "http://terminology.hl7.org/CodeSystem/v3-ActCode", "code": "AMB", "display": "ambulatory"},
        "subject": {"reference": "Patient/revisit-patient-004"},
        "period": {"start": "2025-11-01T11:00:00+08:00", "end": "2025-11-01T11:30:00+08:00"}
      }
    },
    {
      "resource": {
        "resourceType": "Condition",
        "id": "revisit-cond-004-1",
        "clinicalStatus": {"coding": [{"system": "http://terminology.hl7.org/CodeSystem/condition-clinical", "code": "active"}]},
        "verificationStatus": {"coding": [{"system": "http://terminology.hl7.org/CodeSystem/condition-ver-status", "code": "confirmed"}]},
        "category": [{"coding": [{"system": "http://terminology.hl7.org/CodeSystem/condition-category", "code": "encounter-diagnosis"}]}],
        "code": {
          "coding": [
            {"system": "http://hl7.org/fhir/sid/icd-10-cm", "code": "R10.84", "display": "Generalized abdominal pain"},
            {"system": "http://hl7.org/fhir/sid/icd-10-cm", "code": "R10", "display": "Abdominal and pelvic pain"}
          ],
          "text": "Abdominal pain"
        },
        "subject": {"reference": "Patient/revisit-patient-004"},
        "encounter": {"reference": "Encounter/revisit-enc-004-1"},
        "recordedDate": "2025-11-01"
      }
    },
    {
      "resource": {
        "resourceType": "Encounter",
        "id": "revisit-enc-004-2",
        "status": "finished",
        "class": {"system": "http://terminology.hl7.org/CodeSystem/v3-ActCode", "code": "AMB", "display": "ambulatory"},
        "subject": {"reference": "Patient/revisit-patient-004"},
        "period": {"start": "2025-11-01T17:00:00+08:00", "end": "2025-11-01T17:30:00+08:00"}
      }
    },
    {
      "resource": {
        "resourceType": "Condition",
        "id": "revisit-cond-004-2",
        "clinicalStatus": {"coding": [{"system": "http://terminology.hl7.org/CodeSystem/condition-clinical", "code": "active"}]},
        "verificationStatus": {"coding": [{"system": "http://terminology.hl7.org/CodeSystem/condition-ver-status", "code": "confirmed"}]},
        "category": [{"coding": [{"system": "http://terminology.hl7.org/CodeSystem/condition-category", "code": "encounter-diagnosis"}]}],
        "code": {
          "coding": [
            {"system": "http://hl7.org/fhir/sid/icd-10-cm", "code": "R10.84", "display": "Generalized abdominal pain"},
            {"system": "http://hl7.org/fhir/sid/icd-10-cm", "code": "R10", "display": "Abdominal and pelvic pain"}
          ],
          "text": "Abdominal pain"
        },
        "subject": {"reference": "Patient/revisit-patient-004"},
        "encounter": {"reference": "Encounter/revisit-enc-004-2"},
        "recordedDate": "2025-11-01"
      }
    },
    {
      "resource": {
        "resourceType": "Patient",
        "id": "revisit-patient-005",
        "active": true,
        "identifier": [{"system": "http://www.cgmh.org.tw/patient-id", "value": "RV005"}],
        "name": [{"family": "Liu", "given": ["Zhi", "Qiang"]}],
        "gender": "male",
        "birthDate": "1970-09-30"
      }
    },
    {
      "resource": {
        "resourceType": "Encounter",
        "id": "revisit-enc-005-1",
        "status": "finished",
        "class": {"system": "http://terminology.hl7.org/CodeSystem/v3-ActCode", "code": "AMB", "display": "ambulatory"},
        "subject": {"reference": "Patient/revisit-patient-005"},
        "period": {"start": "2025-08-22T09:30:00+08:00", "end": "2025-08-22T10:00:00+08:00"}
      }
    },
    {
      "resource": {
        "resourceType": "Condition",
        "id": "revisit-cond-005-1",
        "clinicalStatus": {"coding": [{"system": "http://terminology.hl7.org/CodeSystem/condition-clinical", "code": "active"}]},
        "verificationStatus": {"coding": [{"system": "http://terminology.hl7.org/CodeSystem/condition-ver-status", "code": "confirmed"}]},
        "category": [{"coding": [{"system": "http://terminology.hl7.org/CodeSystem/condition-category", "code": "encounter-diagnosis"}]}],
        "code": {
          "coding": [
            {"system": "http://hl7.org/fhir/sid/icd-10-cm", "code": "I10", "display": "Essential (primary) hypertension"},
            {"system": "http://hl7.org/fhir/sid/icd-10-cm", "code": "I10", "display": "Essential (primary) hypertension"}
          ],
          "text": "Hypertension"
        },
        "subject": {"reference": "Patient/revisit-patient-005"},
        "encounter": {"reference": "Encounter/revisit-enc-005-1"},
        "recordedDate": "2025-08-22"
      }
    },
    {
      "resource": {
        "resourceType": "Encounter",
        "id": "revisit-enc-005-2",
        "status": "finished",
        "class": {"system": "http://terminology.hl7.org/CodeSystem/v3-ActCode", "code": "AMB", "display": "ambulatory"},
        "subject": {"reference": "Patient/revisit-patient-005"},
        "period": {"start": "2025-08-22T15:30:00+08:00", "end": "2025-08-22T16:00:00+08:00"}
      }
    },
    {
      "resource": {
        "resourceType": "Condition",
        "id": "revisit-cond-005-2",
        "clinicalStatus": {"coding": [{"system": "http://terminology.hl7.org/CodeSystem/condition-clinical", "code": "active"}]},
        "verificationStatus": {"coding": [{"system": "http://terminology.hl7.org/CodeSystem/condition-ver-status", "code": "confirmed"}]},
        "category": [{"coding": [{"system": "http://terminology.hl7.org/CodeSystem/condition-category", "code": "encounter-diagnosis"}]}],
        "code": {
          "coding": [
            {"system": "http://hl7.org/fhir/sid/icd-10-cm", "code": "I10", "display": "Essential (primary) hypertension"},
            {"system": "http://hl7.org/fhir/sid/icd-10-cm", "code": "I10", "display": "Essential (primary) hypertension"}
          ],
          "text": "Hypertension"
        },
        "subject": {"reference": "Patient/revisit-patient-005"},
        "encounter": {"reference": "Encounter/revisit-enc-005-2"},
        "recordedDate": "2025-08-22"
      }
    },
    {
      "resource": {
        "resourceType": "Patient",
        "id": "revisit-patient-006",
        "active": true,
        "identifier": [{"system": "http://www.cgmh.org.tw/patient-id", "value": "RV006"}],
        "name": [{"family": "Huang", "given": ["Xiu", "Ying"]}],
        "gender": "female",
        "birthDate": "1995-01-12"
      }
    },
    {
      "resource": {
        "resourceType": "Encounter",
        "id": "revisit-enc-006-1",
        "status": "finished",
        "class": {"system": "http://terminology.hl7.org/CodeSystem/v3-ActCode", "code": "AMB", "display": "ambulatory"},
        "subject": {"reference": "Patient/revisit-patient-006"},
        "period": {"start": "2025-10-28T10:00:00+08:00", "end": "2025-10-28T10:30:00+08:00"}
      }
    },
    {
      "resource": {
        "resourceType": "Condition",
        "id": "revisit-cond-006-1",
        "clinicalStatus": {"coding": [{"system": "http://terminology.hl7.org/CodeSystem/condition-clinical", "code": "active"}]},
        "verificationStatus": {"coding": [{"system": "http://terminology.hl7.org/CodeSystem/condition-ver-status", "code": "confirmed"}]},
        "category": [{"coding": [{"system": "http://terminology.hl7.org/CodeSystem/condition-category", "code": "encounter-diagnosis"}]}],
        "code": {
          "coding": [
            {"system": "http://hl7.org/fhir/sid/icd-10-cm", "code": "A09", "display": "Infectious gastroenteritis and colitis, unspecified"},
            {"system": "http://hl7.org/fhir/sid/icd-10-cm", "code": "A09", "display": "Infectious gastroenteritis and colitis, unspecified"}
          ],
          "text": "Gastroenteritis"
        },
        "subject": {"reference": "Patient/revisit-patient-006"},
        "encounter": {"reference": "Encounter/revisit-enc-006-1"},
        "recordedDate": "2025-10-28"
      }
    },
    {
      "resource": {
        "resourceType": "Encounter",
        "id": "revisit-enc-006-2",
        "status": "finished",
        "class": {"system": "http://terminology.hl7.org/CodeSystem/v3-ActCode", "code": "AMB", "display": "ambulatory"},
        "subject": {"reference": "Patient/revisit-patient-006"},
        "period": {"start": "2025-10-28T16:30:00+08:00", "end": "2025-10-28T17:00:00+08:00"}
      }
    },
    {
      "resource": {
        "resourceType": "Condition",
        "id": "revisit-cond-006-2",
        "clinicalStatus": {"coding": [{"system": "http://terminology.hl7.org/CodeSystem/condition-clinical", "code": "active"}]},
        "verificationStatus": {"coding": [{"system": "http://terminology.hl7.org/CodeSystem/condition-ver-status", "code": "confirmed"}]},
        "category": [{"coding": [{"system": "http://terminology.hl7.org/CodeSystem/condition-category", "code": "encounter-diagnosis"}]}],
        "code": {
          "coding": [
            {"system": "http://hl7.org/fhir/sid/icd-10-cm", "code": "A09", "display": "Infectious gastroenteritis and colitis, unspecified"},
            {"system": "http://hl7.org/fhir/sid/icd-10-cm", "code": "A09", "display": "Infectious gastroenteritis and colitis, unspecified"}
          ],
          "text": "Gastroenteritis"
        },
        "subject": {"reference": "Patient/revisit-patient-006"},
        "encounter": {"reference": "Encounter/revisit-enc-006-2"},
        "recordedDate": "2025-10-28"
      }
    },
    {
      "resource": {
        "resourceType": "Patient",
        "id": "revisit-patient-007",
        "active": true,
        "identifier": [{"system": "http://www.cgmh.org.tw/patient-id", "value": "RV007"}],
        "name": [{"family": "Chen", "given": ["Wen", "Hao"]}],
        "gender": "male",
        "birthDate": "1982-12-08"
      }
    },
    {
      "resource": {
        "resourceType": "Encounter",
        "id": "revisit-enc-007-1",
        "status": "finished",
        "class": {"system": "http://terminology.hl7.org/CodeSystem/v3-ActCode", "code": "AMB", "display": "ambulatory"},
        "subject": {"reference": "Patient/revisit-patient-007"},
        "period": {"start": "2025-09-18T08:00:00+08:00", "end": "2025-09-18T08:30:00+08:00"}
      }
    },
    {
      "resource": {
        "resourceType": "Condition",
        "id": "revisit-cond-007-1",
        "clinicalStatus": {"coding": [{"system": "http://terminology.hl7.org/CodeSystem/condition-clinical", "code": "active"}]},
        "verificationStatus": {"coding": [{"system": "http://terminology.hl7.org/CodeSystem/condition-ver-status", "code": "confirmed"}]},
        "category": [{"coding": [{"system": "http://terminology.hl7.org/CodeSystem/condition-category", "code": "encounter-diagnosis"}]}],
        "code": {
          "coding": [
            {"system": "http://hl7.org/fhir/sid/icd-10-cm", "code": "H10.33", "display": "Unspecified acute conjunctivitis, bilateral"},
            {"system": "http://hl7.org/fhir/sid/icd-10-cm", "code": "H10", "display": "Conjunctivitis"}
          ],
          "text": "Conjunctivitis"
        },
        "subject": {"reference": "Patient/revisit-patient-007"},
        "encounter": {"reference": "Encounter/revisit-enc-007-1"},
        "recordedDate": "2025-09-18"
      }
    },
    {
      "resource": {
        "resourceType": "Encounter",
        "id": "revisit-enc-007-2",
        "status": "finished",
        "class": {"system": "http://terminology.hl7.org/CodeSystem/v3-ActCode", "code": "AMB", "display": "ambulatory"},
        "subject": {"reference": "Patient/revisit-patient-007"},
        "period": {"start": "2025-09-18T14:00:00+08:00", "end": "2025-09-18T14:30:00+08:00"}
      }
    },
    {
      "resource": {
        "resourceType": "Condition",
        "id": "revisit-cond-007-2",
        "clinicalStatus": {"coding": [{"system": "http://terminology.hl7.org/CodeSystem/condition-clinical", "code": "active"}]},
        "verificationStatus": {"coding": [{"system": "http://terminology.hl7.org/CodeSystem/condition-ver-status", "code": "confirmed"}]},
        "category": [{"coding": [{"system": "http://terminology.hl7.org/CodeSystem/condition-category", "code": "encounter-diagnosis"}]}],
        "code": {
          "coding": [
            {"system": "http://hl7.org/fhir/sid/icd-10-cm", "code": "H10.33", "display": "Unspecified acute conjunctivitis, bilateral"},
            {"system": "http://hl7.org/fhir/sid/icd-10-cm", "code": "H10", "display": "Conjunctivitis"}
          ],
          "text": "Conjunctivitis"
        },
        "subject": {"reference": "Patient/revisit-patient-007"},
        "encounter": {"reference": "Encounter/revisit-enc-007-2"},
        "recordedDate": "2025-09-18"
      }
    }
  ]
}

