{
  "resourceType": "Bundle",
  "type": "transaction",
  "entry": [
    {
      "resource": {
        "resourceType": "Patient",
        "id": "CESAREAN-Q4-P1",
        "name": [{"family": "陳", "given": ["小華"]}],
        "gender": "female",
        "birthDate": "1992-05-10"
      },
      "request": {"method": "PUT", "url": "Patient/CESAREAN-Q4-P1"}
    },
    {
      "resource": {
        "resourceType": "Encounter",
        "id": "CESAREAN-Q4-ENC1",
        "status": "finished",
        "class": {"code": "IMP"},
        "subject": {"reference": "Patient/CESAREAN-Q4-P1"},
        "period": {"start": "2025-11-10", "end": "2025-11-14"}
      },
      "request": {"method": "PUT", "url": "Encounter/CESAREAN-Q4-ENC1"}
    },
    {
      "resource": {
        "resourceType": "Condition",
        "id": "CESAREAN-Q4-COND1",
        "code": {
          "coding": [{"system": "http://hl7.org/fhir/sid/icd-10-cm", "code": "O82"}]
        },
        "subject": {"reference": "Patient/CESAREAN-Q4-P1"},
        "encounter": {"reference": "Encounter/CESAREAN-Q4-ENC1"}
      },
      "request": {"method": "PUT", "url": "Condition/CESAREAN-Q4-COND1"}
    },
    {
      "resource": {
        "resourceType": "Procedure",
        "id": "CESAREAN-Q4-PROC1",
        "status": "completed",
        "code": {
          "coding": [{"system": "http://hl7.org/fhir/sid/icd-10-pcs", "code": "10D00Z0"}]
        },
        "subject": {"reference": "Patient/CESAREAN-Q4-P1"},
        "encounter": {"reference": "Encounter/CESAREAN-Q4-ENC1"},
        "performedDateTime": "2025-11-11"
      },
      "request": {"method": "PUT", "url": "Procedure/CESAREAN-Q4-PROC1"}
    },
    {
      "resource": {
        "resourceType": "Patient",
        "id": "CESAREAN-Q4-P2",
        "name": [{"family": "林", "given": ["雅婷"]}],
        "gender": "female",
        "birthDate": "1988-08-22"
      },
      "request": {"method": "PUT", "url": "Patient/CESAREAN-Q4-P2"}
    },
    {
      "resource": {
        "resourceType": "Encounter",
        "id": "CESAREAN-Q4-ENC2",
        "status": "finished",
        "class": {"code": "IMP"},
        "subject": {"reference": "Patient/CESAREAN-Q4-P2"},
        "period": {"start": "2025-12-01", "end": "2025-12-05"}
      },
      "request": {"method": "PUT", "url": "Encounter/CESAREAN-Q4-ENC2"}
    },
    {
      "resource": {
        "resourceType": "Condition",
        "id": "CESAREAN-Q4-COND2",
        "code": {
          "coding": [{"system": "http://hl7.org/fhir/sid/icd-10-cm", "code": "O80"}]
        },
        "subject": {"reference": "Patient/CESAREAN-Q4-P2"},
        "encounter": {"reference": "Encounter/CESAREAN-Q4-ENC2"}
      },
      "request": {"method": "PUT", "url": "Condition/CESAREAN-Q4-COND2"}
    },
    {
      "resource": {
        "resourceType": "Patient",
        "id": "CESAREAN-Q4-P3",
        "name": [{"family": "張", "given": ["美玲"]}],
        "gender": "female",
        "birthDate": "1995-03-15"
      },
      "request": {"method": "PUT", "url": "Patient/CESAREAN-Q4-P3"}
    },
    {
      "resource": {
        "resourceType": "Encounter",
        "id": "CESAREAN-Q4-ENC3",
        "status": "finished",
        "class": {"code": "IMP"},
        "subject": {"reference": "Patient/CESAREAN-Q4-P3"},
        "period": {"start": "2025-10-15", "end": "2025-10-18"}
      },
      "request": {"method": "PUT", "url": "Encounter/CESAREAN-Q4-ENC3"}
    },
    {
      "resource": {
        "resourceType": "Condition",
        "id": "CESAREAN-Q4-COND3",
        "code": {
          "coding": [{"system": "http://hl7.org/fhir/sid/icd-10-cm", "code": "O82.1"}]
        },
        "subject": {"reference": "Patient/CESAREAN-Q4-P3"},
        "encounter": {"reference": "Encounter/CESAREAN-Q4-ENC3"}
      },
      "request": {"method": "PUT", "url": "Condition/CESAREAN-Q4-COND3"}
    },
    {
      "resource": {
        "resourceType": "Procedure",
        "id": "CESAREAN-Q4-PROC3",
        "status": "completed",
        "code": {
          "coding": [{"system": "http://hl7.org/fhir/sid/icd-10-pcs", "code": "10D00Z1"}]
        },
        "subject": {"reference": "Patient/CESAREAN-Q4-P3"},
        "encounter": {"reference": "Encounter/CESAREAN-Q4-ENC3"},
        "performedDateTime": "2025-10-16"
      },
      "request": {"method": "PUT", "url": "Procedure/CESAREAN-Q4-PROC3"}
    }
  ]
}
