{
  "resourceType": "Bundle",
  "type": "transaction",
  "entry": [
    {
      "resource": {
        "resourceType": "Patient",
        "id": "CESAREAN-SNOMED-P1",
        "name": [{"family": "王", "given": ["小美"]}],
        "gender": "female",
        "birthDate": "1990-06-15"
      },
      "request": {"method": "PUT", "url": "Patient/CESAREAN-SNOMED-P1"}
    },
    {
      "resource": {
        "resourceType": "Encounter",
        "id": "CESAREAN-SNOMED-ENC1",
        "status": "finished",
        "class": {"system": "http://terminology.hl7.org/CodeSystem/v3-ActCode", "code": "IMP"},
        "subject": {"reference": "Patient/CESAREAN-SNOMED-P1"},
        "period": {"start": "2025-11-05T08:00:00+08:00", "end": "2025-11-09T14:00:00+08:00"}
      },
      "request": {"method": "PUT", "url": "Encounter/CESAREAN-SNOMED-ENC1"}
    },
    {
      "resource": {
        "resourceType": "Condition",
        "id": "CESAREAN-SNOMED-COND1",
        "code": {
          "coding": [
            {"system": "http://snomed.info/sct", "code": "11466000", "display": "Cesarean section"},
            {"system": "http://hl7.org/fhir/sid/icd-10", "code": "O82", "display": "Delivery by cesarean section"}
          ]
        },
        "subject": {"reference": "Patient/CESAREAN-SNOMED-P1"},
        "encounter": {"reference": "Encounter/CESAREAN-SNOMED-ENC1"}
      },
      "request": {"method": "PUT", "url": "Condition/CESAREAN-SNOMED-COND1"}
    },
    {
      "resource": {
        "resourceType": "Procedure",
        "id": "CESAREAN-SNOMED-PROC1",
        "status": "completed",
        "code": {
          "coding": [
            {"system": "http://snomed.info/sct", "code": "11466000", "display": "Cesarean section"},
            {"system": "http://www.icd10data.com/icd10pcs", "code": "10D00Z0"}
          ]
        },
        "subject": {"reference": "Patient/CESAREAN-SNOMED-P1"},
        "encounter": {"reference": "Encounter/CESAREAN-SNOMED-ENC1"},
        "performedDateTime": "2025-11-06T10:30:00+08:00"
      },
      "request": {"method": "PUT", "url": "Procedure/CESAREAN-SNOMED-PROC1"}
    }
  ]
}
