{
  "resourceType": "Bundle",
  "type": "transaction",
  "entry": [
    {
      "resource": {
        "resourceType": "Patient",
        "id": "ESWL-P1",
        "name": [{"family": "張", "given": ["大明"]}],
        "gender": "male",
        "birthDate": "1975-05-15"
      },
      "request": {"method": "PUT", "url": "Patient/ESWL-P1"}
    },
    {
      "resource": {
        "resourceType": "Procedure",
        "id": "ESWL-PROC1",
        "status": "completed",
        "code": {
          "coding": [{"system": "http://snomed.info/sct", "code": "80146002"}]
        },
        "subject": {"reference": "Patient/ESWL-P1"},
        "performedDateTime": "2025-11-15"
      },
      "request": {"method": "PUT", "url": "Procedure/ESWL-PROC1"}
    },
    {
      "resource": {
        "resourceType": "Procedure",
        "id": "ESWL-PROC1B",
        "status": "completed",
        "code": {
          "coding": [{"system": "http://snomed.info/sct", "code": "80146002"}]
        },
        "subject": {"reference": "Patient/ESWL-P1"},
        "performedDateTime": "2025-11-20"
      },
      "request": {"method": "PUT", "url": "Procedure/ESWL-PROC1B"}
    },
    {
      "resource": {
        "resourceType": "Procedure",
        "id": "ESWL-PROC1C",
        "status": "completed",
        "code": {
          "coding": [{"system": "http://snomed.info/sct", "code": "80146002"}]
        },
        "subject": {"reference": "Patient/ESWL-P1"},
        "performedDateTime": "2025-11-25"
      },
      "request": {"method": "PUT", "url": "Procedure/ESWL-PROC1C"}
    },
    {
      "resource": {
        "resourceType": "Patient",
        "id": "ESWL-P2",
        "name": [{"family": "李", "given": ["小華"]}],
        "gender": "male",
        "birthDate": "1980-08-20"
      },
      "request": {"method": "PUT", "url": "Patient/ESWL-P2"}
    },
    {
      "resource": {
        "resourceType": "Procedure",
        "id": "ESWL-PROC2",
        "status": "completed",
        "code": {
          "coding": [{"system": "http://snomed.info/sct", "code": "80146002"}]
        },
        "subject": {"reference": "Patient/ESWL-P2"},
        "performedDateTime": "2025-12-01"
      },
      "request": {"method": "PUT", "url": "Procedure/ESWL-PROC2"}
    },
    {
      "resource": {
        "resourceType": "Procedure",
        "id": "ESWL-PROC2B",
        "status": "completed",
        "code": {
          "coding": [{"system": "http://snomed.info/sct", "code": "80146002"}]
        },
        "subject": {"reference": "Patient/ESWL-P2"},
        "performedDateTime": "2025-12-05"
      },
      "request": {"method": "PUT", "url": "Procedure/ESWL-PROC2B"}
    },
    {
      "resource": {
        "resourceType": "Patient",
        "id": "ESWL-P3",
        "name": [{"family": "王", "given": ["美玲"]}],
        "gender": "female",
        "birthDate": "1985-03-12"
      },
      "request": {"method": "PUT", "url": "Patient/ESWL-P3"}
    },
    {
      "resource": {
        "resourceType": "Procedure",
        "id": "ESWL-PROC3",
        "status": "completed",
        "code": {
          "coding": [{"system": "http://snomed.info/sct", "code": "80146002"}]
        },
        "subject": {"reference": "Patient/ESWL-P3"},
        "performedDateTime": "2025-11-10"
      },
      "request": {"method": "PUT", "url": "Procedure/ESWL-PROC3"}
    }
  ]
}
