{
  "resourceType": "Bundle",
  "type": "transaction",
  "entry": [
    {
      "resource": {
        "resourceType": "Patient",
        "id": "SHAH001",
        "identifier": [
          {
            "system": "http://www.boca.gov.tw/",
            "value": "SHAH001"
          }
        ],
        "gender": "male",
        "birthDate": "1958-03-15"
      },
      "request": {
        "method": "PUT",
        "url": "Patient/SHAH001"
      }
    },
    {
      "resource": {
        "resourceType": "Organization",
        "id": "SHAH-Hospital",
        "identifier": [
          {
            "system": "http://www.nhi.gov.tw/hospital",
            "value": "SHAH-HOSP-001"
          }
        ],
        "name": "同院降血壓藥測試醫院"
      },
      "request": {
        "method": "PUT",
        "url": "Organization/SHAH-Hospital"
      }
    },
    {
      "resource": {
        "resourceType": "Encounter",
        "id": "SHAH001-enc1",
        "status": "finished",
        "class": {
          "system": "http://terminology.hl7.org/CodeSystem/v3-ActCode",
          "code": "AMB",
          "display": "ambulatory"
        },
        "subject": {
          "reference": "Patient/SHAH001"
        },
        "period": {
          "start": "2024-10-05T09:00:00Z",
          "end": "2024-10-05T09:30:00Z"
        }
      },
      "request": {
        "method": "PUT",
        "url": "Encounter/SHAH001-enc1"
      }
    },
    {
      "resource": {
        "resourceType": "MedicationRequest",
        "id": "SHAH001-med1",
        "status": "completed",
        "intent": "order",
        "medicationCodeableConcept": {
          "coding": [
            {
              "system": "http://www.whocc.no/atc",
              "code": "C07AB02",
              "display": "metoprolol"
            },
            {
              "system": "http://www.nhi.gov.tw/codes",
              "code": "AB123451",
              "display": "Metoprolol 100mg tablet"
            }
          ]
        },
        "subject": {
          "reference": "Patient/SHAH001"
        },
        "encounter": {
          "reference": "Encounter/SHAH001-enc1"
        },
        "authoredOn": "2024-10-05T09:15:00Z",
        "requester": {
          "reference": "Organization/SHAH-Hospital"
        },
        "dispenseRequest": {
          "validityPeriod": {
            "start": "2024-10-05",
            "end": "2024-10-34"
          },
          "quantity": {
            "value": 30,
            "unit": "tablets"
          }
        }
      },
      "request": {
        "method": "PUT",
        "url": "MedicationRequest/SHAH001-med1"
      }
    },
    {
      "resource": {
        "resourceType": "Encounter",
        "id": "SHAH001-enc2",
        "status": "finished",
        "class": {
          "system": "http://terminology.hl7.org/CodeSystem/v3-ActCode",
          "code": "AMB",
          "display": "ambulatory"
        },
        "subject": {
          "reference": "Patient/SHAH001"
        },
        "period": {
          "start": "2024-10-20T10:00:00Z",
          "end": "2024-10-20T10:30:00Z"
        }
      },
      "request": {
        "method": "PUT",
        "url": "Encounter/SHAH001-enc2"
      }
    },
    {
      "resource": {
        "resourceType": "MedicationRequest",
        "id": "SHAH001-med2",
        "status": "completed",
        "intent": "order",
        "medicationCodeableConcept": {
          "coding": [
            {
              "system": "http://www.whocc.no/atc",
              "code": "C09AA02",
              "display": "enalapril"
            },
            {
              "system": "http://www.nhi.gov.tw/codes",
              "code": "BC234561",
              "display": "Enalapril 5mg tablet"
            }
          ]
        },
        "subject": {
          "reference": "Patient/SHAH001"
        },
        "encounter": {
          "reference": "Encounter/SHAH001-enc2"
        },
        "authoredOn": "2024-10-20T10:15:00Z",
        "requester": {
          "reference": "Organization/SHAH-Hospital"
        },
        "dispenseRequest": {
          "validityPeriod": {
            "start": "2024-10-20",
            "end": "2024-11-18"
          },
          "quantity": {
            "value": 30,
            "unit": "tablets"
          }
        }
      },
      "request": {
        "method": "PUT",
        "url": "MedicationRequest/SHAH001-med2"
      }
    },
    {
      "resource": {
        "resourceType": "Patient",
        "id": "SHAH002",
        "identifier": [
          {
            "system": "http://www.boca.gov.tw/",
            "value": "SHAH002"
          }
        ],
        "gender": "female",
        "birthDate": "1965-07-22"
      },
      "request": {
        "method": "PUT",
        "url": "Patient/SHAH002"
      }
    },
    {
      "resource": {
        "resourceType": "Encounter",
        "id": "SHAH002-enc1",
        "status": "finished",
        "class": {
          "system": "http://terminology.hl7.org/CodeSystem/v3-ActCode",
          "code": "AMB",
          "display": "ambulatory"
        },
        "subject": {
          "reference": "Patient/SHAH002"
        },
        "period": {
          "start": "2024-10-08T11:00:00Z",
          "end": "2024-10-08T11:30:00Z"
        }
      },
      "request": {
        "method": "PUT",
        "url": "Encounter/SHAH002-enc1"
      }
    },
    {
      "resource": {
        "resourceType": "MedicationRequest",
        "id": "SHAH002-med1",
        "status": "completed",
        "intent": "order",
        "medicationCodeableConcept": {
          "coding": [
            {
              "system": "http://www.whocc.no/atc",
              "code": "C08CA01",
              "display": "amlodipine"
            },
            {
              "system": "http://www.nhi.gov.tw/codes",
              "code": "CC345671",
              "display": "Amlodipine 5mg tablet"
            }
          ]
        },
        "subject": {
          "reference": "Patient/SHAH002"
        },
        "encounter": {
          "reference": "Encounter/SHAH002-enc1"
        },
        "authoredOn": "2024-10-08T11:15:00Z",
        "requester": {
          "reference": "Organization/SHAH-Hospital"
        },
        "dispenseRequest": {
          "validityPeriod": {
            "start": "2024-10-08",
            "end": "2024-11-06"
          },
          "quantity": {
            "value": 30,
            "unit": "tablets"
          }
        }
      },
      "request": {
        "method": "PUT",
        "url": "MedicationRequest/SHAH002-med1"
      }
    },
    {
      "resource": {
        "resourceType": "Encounter",
        "id": "SHAH002-enc2",
        "status": "finished",
        "class": {
          "system": "http://terminology.hl7.org/CodeSystem/v3-ActCode",
          "code": "AMB",
          "display": "ambulatory"
        },
        "subject": {
          "reference": "Patient/SHAH002"
        },
        "period": {
          "start": "2024-10-25T14:00:00Z",
          "end": "2024-10-25T14:30:00Z"
        }
      },
      "request": {
        "method": "PUT",
        "url": "Encounter/SHAH002-enc2"
      }
    },
    {
      "resource": {
        "resourceType": "MedicationRequest",
        "id": "SHAH002-med2",
        "status": "completed",
        "intent": "order",
        "medicationCodeableConcept": {
          "coding": [
            {
              "system": "http://www.whocc.no/atc",
              "code": "C03CA01",
              "display": "furosemide"
            },
            {
              "system": "http://www.nhi.gov.tw/codes",
              "code": "DD456781",
              "display": "Furosemide 40mg tablet"
            }
          ]
        },
        "subject": {
          "reference": "Patient/SHAH002"
        },
        "encounter": {
          "reference": "Encounter/SHAH002-enc2"
        },
        "authoredOn": "2024-10-25T14:15:00Z",
        "requester": {
          "reference": "Organization/SHAH-Hospital"
        },
        "dispenseRequest": {
          "validityPeriod": {
            "start": "2024-10-25",
            "end": "2024-11-23"
          },
          "quantity": {
            "value": 30,
            "unit": "tablets"
          }
        }
      },
      "request": {
        "method": "PUT",
        "url": "MedicationRequest/SHAH002-med2"
      }
    },
    {
      "resource": {
        "resourceType": "Patient",
        "id": "SHAH003",
        "identifier": [
          {
            "system": "http://www.boca.gov.tw/",
            "value": "SHAH003"
          }
        ],
        "gender": "male",
        "birthDate": "1962-11-10"
      },
      "request": {
        "method": "PUT",
        "url": "Patient/SHAH003"
      }
    },
    {
      "resource": {
        "resourceType": "Encounter",
        "id": "SHAH003-enc1",
        "status": "finished",
        "class": {
          "system": "http://terminology.hl7.org/CodeSystem/v3-ActCode",
          "code": "AMB",
          "display": "ambulatory"
        },
        "subject": {
          "reference": "Patient/SHAH003"
        },
        "period": {
          "start": "2024-10-12T08:30:00Z",
          "end": "2024-10-12T09:00:00Z"
        }
      },
      "request": {
        "method": "PUT",
        "url": "Encounter/SHAH003-enc1"
      }
    },
    {
      "resource": {
        "resourceType": "MedicationRequest",
        "id": "SHAH003-med1",
        "status": "completed",
        "intent": "order",
        "medicationCodeableConcept": {
          "coding": [
            {
              "system": "http://www.whocc.no/atc",
              "code": "C09CA01",
              "display": "losartan"
            },
            {
              "system": "http://www.nhi.gov.tw/codes",
              "code": "EE567891",
              "display": "Losartan 50mg tablet"
            }
          ]
        },
        "subject": {
          "reference": "Patient/SHAH003"
        },
        "encounter": {
          "reference": "Encounter/SHAH003-enc1"
        },
        "authoredOn": "2024-10-12T08:45:00Z",
        "requester": {
          "reference": "Organization/SHAH-Hospital"
        },
        "dispenseRequest": {
          "validityPeriod": {
            "start": "2024-10-12",
            "end": "2024-11-10"
          },
          "quantity": {
            "value": 30,
            "unit": "tablets"
          }
        }
      },
      "request": {
        "method": "PUT",
        "url": "MedicationRequest/SHAH003-med1"
      }
    },
    {
      "resource": {
        "resourceType": "Encounter",
        "id": "SHAH003-enc2",
        "status": "finished",
        "class": {
          "system": "http://terminology.hl7.org/CodeSystem/v3-ActCode",
          "code": "AMB",
          "display": "ambulatory"
        },
        "subject": {
          "reference": "Patient/SHAH003"
        },
        "period": {
          "start": "2024-10-28T15:00:00Z",
          "end": "2024-10-28T15:30:00Z"
        }
      },
      "request": {
        "method": "PUT",
        "url": "Encounter/SHAH003-enc2"
      }
    },
    {
      "resource": {
        "resourceType": "MedicationRequest",
        "id": "SHAH003-med2",
        "status": "completed",
        "intent": "order",
        "medicationCodeableConcept": {
          "coding": [
            {
              "system": "http://www.whocc.no/atc",
              "code": "C08DA01",
              "display": "diltiazem"
            },
            {
              "system": "http://www.nhi.gov.tw/codes",
              "code": "FF678901",
              "display": "Diltiazem 60mg tablet"
            }
          ]
        },
        "subject": {
          "reference": "Patient/SHAH003"
        },
        "encounter": {
          "reference": "Encounter/SHAH003-enc2"
        },
        "authoredOn": "2024-10-28T15:15:00Z",
        "requester": {
          "reference": "Organization/SHAH-Hospital"
        },
        "dispenseRequest": {
          "validityPeriod": {
            "start": "2024-10-28",
            "end": "2024-11-26"
          },
          "quantity": {
            "value": 30,
            "unit": "tablets"
          }
        }
      },
      "request": {
        "method": "PUT",
        "url": "MedicationRequest/SHAH003-med2"
      }
    },
    {
      "resource": {
        "resourceType": "Patient",
        "id": "SHAH004",
        "identifier": [
          {
            "system": "http://www.boca.gov.tw/",
            "value": "SHAH004"
          }
        ],
        "gender": "female",
        "birthDate": "1970-05-18"
      },
      "request": {
        "method": "PUT",
        "url": "Patient/SHAH004"
      }
    },
    {
      "resource": {
        "resourceType": "Encounter",
        "id": "SHAH004-enc1",
        "status": "finished",
        "class": {
          "system": "http://terminology.hl7.org/CodeSystem/v3-ActCode",
          "code": "AMB",
          "display": "ambulatory"
        },
        "subject": {
          "reference": "Patient/SHAH004"
        },
        "period": {
          "start": "2024-10-15T10:00:00Z",
          "end": "2024-10-15T10:30:00Z"
        }
      },
      "request": {
        "method": "PUT",
        "url": "Encounter/SHAH004-enc1"
      }
    },
    {
      "resource": {
        "resourceType": "MedicationRequest",
        "id": "SHAH004-med1",
        "status": "completed",
        "intent": "order",
        "medicationCodeableConcept": {
          "coding": [
            {
              "system": "http://www.whocc.no/atc",
              "code": "C02CA04",
              "display": "doxazosin"
            },
            {
              "system": "http://www.nhi.gov.tw/codes",
              "code": "GG789011",
              "display": "Doxazosin 2mg tablet"
            }
          ]
        },
        "subject": {
          "reference": "Patient/SHAH004"
        },
        "encounter": {
          "reference": "Encounter/SHAH004-enc1"
        },
        "authoredOn": "2024-10-15T10:15:00Z",
        "requester": {
          "reference": "Organization/SHAH-Hospital"
        },
        "dispenseRequest": {
          "validityPeriod": {
            "start": "2024-10-15",
            "end": "2024-11-13"
          },
          "quantity": {
            "value": 30,
            "unit": "tablets"
          }
        }
      },
      "request": {
        "method": "PUT",
        "url": "MedicationRequest/SHAH004-med1"
      }
    },
    {
      "resource": {
        "resourceType": "Encounter",
        "id": "SHAH004-enc2",
        "status": "finished",
        "class": {
          "system": "http://terminology.hl7.org/CodeSystem/v3-ActCode",
          "code": "AMB",
          "display": "ambulatory"
        },
        "subject": {
          "reference": "Patient/SHAH004"
        },
        "period": {
          "start": "2024-11-01T13:00:00Z",
          "end": "2024-11-01T13:30:00Z"
        }
      },
      "request": {
        "method": "PUT",
        "url": "Encounter/SHAH004-enc2"
      }
    },
    {
      "resource": {
        "resourceType": "MedicationRequest",
        "id": "SHAH004-med2",
        "status": "completed",
        "intent": "order",
        "medicationCodeableConcept": {
          "coding": [
            {
              "system": "http://www.whocc.no/atc",
              "code": "C03BA11",
              "display": "indapamide"
            },
            {
              "system": "http://www.nhi.gov.tw/codes",
              "code": "HH890121",
              "display": "Indapamide 2.5mg tablet"
            }
          ]
        },
        "subject": {
          "reference": "Patient/SHAH004"
        },
        "encounter": {
          "reference": "Encounter/SHAH004-enc2"
        },
        "authoredOn": "2024-11-01T13:15:00Z",
        "requester": {
          "reference": "Organization/SHAH-Hospital"
        },
        "dispenseRequest": {
          "validityPeriod": {
            "start": "2024-11-01",
            "end": "2024-11-30"
          },
          "quantity": {
            "value": 30,
            "unit": "tablets"
          }
        }
      },
      "request": {
        "method": "PUT",
        "url": "MedicationRequest/SHAH004-med2"
      }
    }
  ]
}
