{
    "resourceType":  "Bundle",
    "entry":  [
                  {
                      "resource":  {
                                       "resourceType":  "Patient",
                                       "birthDate":  "1990-01-01",
                                       "id":  "cesarean-first-time-001",
                                       "gender":  "female"
                                   },
                      "fullUrl":  "Patient/cesarean-first-time-001",
                      "request":  {
                                      "method":  "PUT",
                                      "url":  "Patient/cesarean-first-time-001"
                                  }
                  },
                  {
                      "resource":  {
                                       "id":  "enc-cesarean-first-time-001",
                                       "class":  {
                                                     "code":  "IMP",
                                                     "display":  "住院"
                                                 },
                                       "resourceType":  "Encounter",
                                       "subject":  {
                                                       "reference":  "Patient/cesarean-first-time-001"
                                                   },
                                       "period":  {
                                                      "start":  "2025-10-15T08:00:00Z",
                                                      "end":  "2025-10-15T20:00:00Z"
                                                  },
                                       "status":  "finished"
                                   },
                      "fullUrl":  "Encounter/enc-cesarean-first-time-001",
                      "request":  {
                                      "method":  "PUT",
                                      "url":  "Encounter/enc-cesarean-first-time-001"
                                  }
                  },
                  {
                      "resource":  {
                                       "id":  "proc-cesarean-first-time-001",
                                       "code":  {
                                                    "coding":  [
                                                                   {
                                                                       "code":  "80402C",
                                                                       "display":  "剖腹生產",
                                                                       "system":  "https://twhealth.mohw.gov.tw/fhir/CodeSystem/health-insurance"
                                                                   }
                                                               ]
                                                },
                                       "subject":  {
                                                       "reference":  "Patient/cesarean-first-time-001"
                                                   },
                                       "encounter":  {
                                                         "reference":  "Encounter/enc-cesarean-first-time-001"
                                                     },
                                       "resourceType":  "Procedure",
                                       "performedDateTime":  "2025-10-15T10:00:00Z",
                                       "status":  "completed"
                                   },
                      "fullUrl":  "Procedure/proc-cesarean-first-time-001",
                      "request":  {
                                      "method":  "PUT",
                                      "url":  "Procedure/proc-cesarean-first-time-001"
                                  }
                  },
                  {
                      "resource":  {
                                       "resourceType":  "Condition",
                                       "encounter":  {
                                                         "reference":  "Encounter/enc-cesarean-first-time-001"
                                                     },
                                       "code":  {
                                                    "coding":  [
                                                                   {
                                                                       "code":  "O82",
                                                                       "display":  "剖腹產式分娩",
                                                                       "system":  "http://hl7.org/fhir/sid/icd-10-cm"
                                                                   }
                                                               ]
                                                },
                                       "id":  "cond-cesarean-first-time-001",
                                       "subject":  {
                                                       "reference":  "Patient/cesarean-first-time-001"
                                                   }
                                   },
                      "fullUrl":  "Condition/cond-cesarean-first-time-001",
                      "request":  {
                                      "method":  "PUT",
                                      "url":  "Condition/cond-cesarean-first-time-001"
                                  }
                  },
                  {
                      "resource":  {
                                       "id":  "obs-cesarean-first-time-001",
                                       "valueInteger":  1,
                                       "code":  {
                                                    "coding":  [
                                                                   {
                                                                       "code":  "11996-6",
                                                                       "display":  "Gravida",
                                                                       "system":  "http://loinc.org"
                                                                   }
                                                               ]
                                                },
                                       "subject":  {
                                                       "reference":  "Patient/cesarean-first-time-001"
                                                   },
                                       "encounter":  {
                                                         "reference":  "Encounter/enc-cesarean-first-time-001"
                                                     },
                                       "resourceType":  "Observation",
                                       "status":  "final"
                                   },
                      "fullUrl":  "Observation/obs-cesarean-first-time-001",
                      "request":  {
                                      "method":  "PUT",
                                      "url":  "Observation/obs-cesarean-first-time-001"
                                  }
                  },
                  {
                      "resource":  {
                                       "resourceType":  "Patient",
                                       "birthDate":  "1990-01-01",
                                       "id":  "cesarean-first-time-002",
                                       "gender":  "female"
                                   },
                      "fullUrl":  "Patient/cesarean-first-time-002",
                      "request":  {
                                      "method":  "PUT",
                                      "url":  "Patient/cesarean-first-time-002"
                                  }
                  },
                  {
                      "resource":  {
                                       "id":  "enc-cesarean-first-time-002",
                                       "class":  {
                                                     "code":  "IMP",
                                                     "display":  "住院"
                                                 },
                                       "resourceType":  "Encounter",
                                       "subject":  {
                                                       "reference":  "Patient/cesarean-first-time-002"
                                                   },
                                       "period":  {
                                                      "start":  "2025-10-22T08:00:00Z",
                                                      "end":  "2025-10-22T20:00:00Z"
                                                  },
                                       "status":  "finished"
                                   },
                      "fullUrl":  "Encounter/enc-cesarean-first-time-002",
                      "request":  {
                                      "method":  "PUT",
                                      "url":  "Encounter/enc-cesarean-first-time-002"
                                  }
                  },
                  {
                      "resource":  {
                                       "id":  "proc-cesarean-first-time-002",
                                       "code":  {
                                                    "coding":  [
                                                                   {
                                                                       "code":  "80402C",
                                                                       "display":  "剖腹生產",
                                                                       "system":  "https://twhealth.mohw.gov.tw/fhir/CodeSystem/health-insurance"
                                                                   }
                                                               ]
                                                },
                                       "subject":  {
                                                       "reference":  "Patient/cesarean-first-time-002"
                                                   },
                                       "encounter":  {
                                                         "reference":  "Encounter/enc-cesarean-first-time-002"
                                                     },
                                       "resourceType":  "Procedure",
                                       "performedDateTime":  "2025-10-22T10:00:00Z",
                                       "status":  "completed"
                                   },
                      "fullUrl":  "Procedure/proc-cesarean-first-time-002",
                      "request":  {
                                      "method":  "PUT",
                                      "url":  "Procedure/proc-cesarean-first-time-002"
                                  }
                  },
                  {
                      "resource":  {
                                       "resourceType":  "Condition",
                                       "encounter":  {
                                                         "reference":  "Encounter/enc-cesarean-first-time-002"
                                                     },
                                       "code":  {
                                                    "coding":  [
                                                                   {
                                                                       "code":  "O82",
                                                                       "display":  "剖腹產式分娩",
                                                                       "system":  "http://hl7.org/fhir/sid/icd-10-cm"
                                                                   }
                                                               ]
                                                },
                                       "id":  "cond-cesarean-first-time-002",
                                       "subject":  {
                                                       "reference":  "Patient/cesarean-first-time-002"
                                                   }
                                   },
                      "fullUrl":  "Condition/cond-cesarean-first-time-002",
                      "request":  {
                                      "method":  "PUT",
                                      "url":  "Condition/cond-cesarean-first-time-002"
                                  }
                  },
                  {
                      "resource":  {
                                       "id":  "obs-cesarean-first-time-002",
                                       "valueInteger":  1,
                                       "code":  {
                                                    "coding":  [
                                                                   {
                                                                       "code":  "11996-6",
                                                                       "display":  "Gravida",
                                                                       "system":  "http://loinc.org"
                                                                   }
                                                               ]
                                                },
                                       "subject":  {
                                                       "reference":  "Patient/cesarean-first-time-002"
                                                   },
                                       "encounter":  {
                                                         "reference":  "Encounter/enc-cesarean-first-time-002"
                                                     },
                                       "resourceType":  "Observation",
                                       "status":  "final"
                                   },
                      "fullUrl":  "Observation/obs-cesarean-first-time-002",
                      "request":  {
                                      "method":  "PUT",
                                      "url":  "Observation/obs-cesarean-first-time-002"
                                  }
                  },
                  {
                      "resource":  {
                                       "resourceType":  "Patient",
                                       "birthDate":  "1990-01-01",
                                       "id":  "cesarean-first-time-003",
                                       "gender":  "female"
                                   },
                      "fullUrl":  "Patient/cesarean-first-time-003",
                      "request":  {
                                      "method":  "PUT",
                                      "url":  "Patient/cesarean-first-time-003"
                                  }
                  },
                  {
                      "resource":  {
                                       "id":  "enc-cesarean-first-time-003",
                                       "class":  {
                                                     "code":  "IMP",
                                                     "display":  "住院"
                                                 },
                                       "resourceType":  "Encounter",
                                       "subject":  {
                                                       "reference":  "Patient/cesarean-first-time-003"
                                                   },
                                       "period":  {
                                                      "start":  "2025-10-30T08:00:00Z",
                                                      "end":  "2025-10-30T20:00:00Z"
                                                  },
                                       "status":  "finished"
                                   },
                      "fullUrl":  "Encounter/enc-cesarean-first-time-003",
                      "request":  {
                                      "method":  "PUT",
                                      "url":  "Encounter/enc-cesarean-first-time-003"
                                  }
                  },
                  {
                      "resource":  {
                                       "id":  "proc-cesarean-first-time-003",
                                       "code":  {
                                                    "coding":  [
                                                                   {
                                                                       "code":  "80402C",
                                                                       "display":  "剖腹生產",
                                                                       "system":  "https://twhealth.mohw.gov.tw/fhir/CodeSystem/health-insurance"
                                                                   }
                                                               ]
                                                },
                                       "subject":  {
                                                       "reference":  "Patient/cesarean-first-time-003"
                                                   },
                                       "encounter":  {
                                                         "reference":  "Encounter/enc-cesarean-first-time-003"
                                                     },
                                       "resourceType":  "Procedure",
                                       "performedDateTime":  "2025-10-30T10:00:00Z",
                                       "status":  "completed"
                                   },
                      "fullUrl":  "Procedure/proc-cesarean-first-time-003",
                      "request":  {
                                      "method":  "PUT",
                                      "url":  "Procedure/proc-cesarean-first-time-003"
                                  }
                  },
                  {
                      "resource":  {
                                       "resourceType":  "Condition",
                                       "encounter":  {
                                                         "reference":  "Encounter/enc-cesarean-first-time-003"
                                                     },
                                       "code":  {
                                                    "coding":  [
                                                                   {
                                                                       "code":  "O82",
                                                                       "display":  "剖腹產式分娩",
                                                                       "system":  "http://hl7.org/fhir/sid/icd-10-cm"
                                                                   }
                                                               ]
                                                },
                                       "id":  "cond-cesarean-first-time-003",
                                       "subject":  {
                                                       "reference":  "Patient/cesarean-first-time-003"
                                                   }
                                   },
                      "fullUrl":  "Condition/cond-cesarean-first-time-003",
                      "request":  {
                                      "method":  "PUT",
                                      "url":  "Condition/cond-cesarean-first-time-003"
                                  }
                  },
                  {
                      "resource":  {
                                       "id":  "obs-cesarean-first-time-003",
                                       "valueInteger":  3,
                                       "code":  {
                                                    "coding":  [
                                                                   {
                                                                       "code":  "11996-6",
                                                                       "display":  "Gravida",
                                                                       "system":  "http://loinc.org"
                                                                   }
                                                               ]
                                                },
                                       "subject":  {
                                                       "reference":  "Patient/cesarean-first-time-003"
                                                   },
                                       "encounter":  {
                                                         "reference":  "Encounter/enc-cesarean-first-time-003"
                                                     },
                                       "resourceType":  "Observation",
                                       "status":  "final"
                                   },
                      "fullUrl":  "Observation/obs-cesarean-first-time-003",
                      "request":  {
                                      "method":  "PUT",
                                      "url":  "Observation/obs-cesarean-first-time-003"
                                  }
                  },
                  {
                      "resource":  {
                                       "resourceType":  "Patient",
                                       "birthDate":  "1990-01-01",
                                       "id":  "cesarean-first-time-004",
                                       "gender":  "female"
                                   },
                      "fullUrl":  "Patient/cesarean-first-time-004",
                      "request":  {
                                      "method":  "PUT",
                                      "url":  "Patient/cesarean-first-time-004"
                                  }
                  },
                  {
                      "resource":  {
                                       "id":  "enc-cesarean-first-time-004",
                                       "class":  {
                                                     "code":  "IMP",
                                                     "display":  "住院"
                                                 },
                                       "resourceType":  "Encounter",
                                       "subject":  {
                                                       "reference":  "Patient/cesarean-first-time-004"
                                                   },
                                       "period":  {
                                                      "start":  "2025-11-05T08:00:00Z",
                                                      "end":  "2025-11-05T20:00:00Z"
                                                  },
                                       "status":  "finished"
                                   },
                      "fullUrl":  "Encounter/enc-cesarean-first-time-004",
                      "request":  {
                                      "method":  "PUT",
                                      "url":  "Encounter/enc-cesarean-first-time-004"
                                  }
                  },
                  {
                      "resource":  {
                                       "id":  "proc-cesarean-first-time-004",
                                       "code":  {
                                                    "coding":  [
                                                                   {
                                                                       "code":  "80402C",
                                                                       "display":  "剖腹生產",
                                                                       "system":  "https://twhealth.mohw.gov.tw/fhir/CodeSystem/health-insurance"
                                                                   }
                                                               ]
                                                },
                                       "subject":  {
                                                       "reference":  "Patient/cesarean-first-time-004"
                                                   },
                                       "encounter":  {
                                                         "reference":  "Encounter/enc-cesarean-first-time-004"
                                                     },
                                       "resourceType":  "Procedure",
                                       "performedDateTime":  "2025-11-05T10:00:00Z",
                                       "status":  "completed"
                                   },
                      "fullUrl":  "Procedure/proc-cesarean-first-time-004",
                      "request":  {
                                      "method":  "PUT",
                                      "url":  "Procedure/proc-cesarean-first-time-004"
                                  }
                  },
                  {
                      "resource":  {
                                       "resourceType":  "Condition",
                                       "encounter":  {
                                                         "reference":  "Encounter/enc-cesarean-first-time-004"
                                                     },
                                       "code":  {
                                                    "coding":  [
                                                                   {
                                                                       "code":  "O82",
                                                                       "display":  "剖腹產式分娩",
                                                                       "system":  "http://hl7.org/fhir/sid/icd-10-cm"
                                                                   }
                                                               ]
                                                },
                                       "id":  "cond-cesarean-first-time-004",
                                       "subject":  {
                                                       "reference":  "Patient/cesarean-first-time-004"
                                                   }
                                   },
                      "fullUrl":  "Condition/cond-cesarean-first-time-004",
                      "request":  {
                                      "method":  "PUT",
                                      "url":  "Condition/cond-cesarean-first-time-004"
                                  }
                  },
                  {
                      "resource":  {
                                       "id":  "obs-cesarean-first-time-004",
                                       "valueInteger":  4,
                                       "code":  {
                                                    "coding":  [
                                                                   {
                                                                       "code":  "11996-6",
                                                                       "display":  "Gravida",
                                                                       "system":  "http://loinc.org"
                                                                   }
                                                               ]
                                                },
                                       "subject":  {
                                                       "reference":  "Patient/cesarean-first-time-004"
                                                   },
                                       "encounter":  {
                                                         "reference":  "Encounter/enc-cesarean-first-time-004"
                                                     },
                                       "resourceType":  "Observation",
                                       "status":  "final"
                                   },
                      "fullUrl":  "Observation/obs-cesarean-first-time-004",
                      "request":  {
                                      "method":  "PUT",
                                      "url":  "Observation/obs-cesarean-first-time-004"
                                  }
                  },
                  {
                      "resource":  {
                                       "resourceType":  "Patient",
                                       "birthDate":  "1990-01-01",
                                       "id":  "cesarean-first-time-005",
                                       "gender":  "female"
                                   },
                      "fullUrl":  "Patient/cesarean-first-time-005",
                      "request":  {
                                      "method":  "PUT",
                                      "url":  "Patient/cesarean-first-time-005"
                                  }
                  },
                  {
                      "resource":  {
                                       "id":  "enc-cesarean-first-time-005",
                                       "class":  {
                                                     "code":  "IMP",
                                                     "display":  "住院"
                                                 },
                                       "resourceType":  "Encounter",
                                       "subject":  {
                                                       "reference":  "Patient/cesarean-first-time-005"
                                                   },
                                       "period":  {
                                                      "start":  "2025-11-12T08:00:00Z",
                                                      "end":  "2025-11-12T20:00:00Z"
                                                  },
                                       "status":  "finished"
                                   },
                      "fullUrl":  "Encounter/enc-cesarean-first-time-005",
                      "request":  {
                                      "method":  "PUT",
                                      "url":  "Encounter/enc-cesarean-first-time-005"
                                  }
                  },
                  {
                      "resource":  {
                                       "id":  "proc-cesarean-first-time-005",
                                       "code":  {
                                                    "coding":  [
                                                                   {
                                                                       "code":  "80402C",
                                                                       "display":  "剖腹生產",
                                                                       "system":  "https://twhealth.mohw.gov.tw/fhir/CodeSystem/health-insurance"
                                                                   }
                                                               ]
                                                },
                                       "subject":  {
                                                       "reference":  "Patient/cesarean-first-time-005"
                                                   },
                                       "encounter":  {
                                                         "reference":  "Encounter/enc-cesarean-first-time-005"
                                                     },
                                       "resourceType":  "Procedure",
                                       "performedDateTime":  "2025-11-12T10:00:00Z",
                                       "status":  "completed"
                                   },
                      "fullUrl":  "Procedure/proc-cesarean-first-time-005",
                      "request":  {
                                      "method":  "PUT",
                                      "url":  "Procedure/proc-cesarean-first-time-005"
                                  }
                  },
                  {
                      "resource":  {
                                       "resourceType":  "Condition",
                                       "encounter":  {
                                                         "reference":  "Encounter/enc-cesarean-first-time-005"
                                                     },
                                       "code":  {
                                                    "coding":  [
                                                                   {
                                                                       "code":  "O82",
                                                                       "display":  "剖腹產式分娩",
                                                                       "system":  "http://hl7.org/fhir/sid/icd-10-cm"
                                                                   }
                                                               ]
                                                },
                                       "id":  "cond-cesarean-first-time-005",
                                       "subject":  {
                                                       "reference":  "Patient/cesarean-first-time-005"
                                                   }
                                   },
                      "fullUrl":  "Condition/cond-cesarean-first-time-005",
                      "request":  {
                                      "method":  "PUT",
                                      "url":  "Condition/cond-cesarean-first-time-005"
                                  }
                  },
                  {
                      "resource":  {
                                       "id":  "obs-cesarean-first-time-005",
                                       "valueInteger":  5,
                                       "code":  {
                                                    "coding":  [
                                                                   {
                                                                       "code":  "11996-6",
                                                                       "display":  "Gravida",
                                                                       "system":  "http://loinc.org"
                                                                   }
                                                               ]
                                                },
                                       "subject":  {
                                                       "reference":  "Patient/cesarean-first-time-005"
                                                   },
                                       "encounter":  {
                                                         "reference":  "Encounter/enc-cesarean-first-time-005"
                                                     },
                                       "resourceType":  "Observation",
                                       "status":  "final"
                                   },
                      "fullUrl":  "Observation/obs-cesarean-first-time-005",
                      "request":  {
                                      "method":  "PUT",
                                      "url":  "Observation/obs-cesarean-first-time-005"
                                  }
                  },
                  {
                      "resource":  {
                                       "resourceType":  "Patient",
                                       "birthDate":  "1990-01-01",
                                       "id":  "cesarean-first-time-006",
                                       "gender":  "female"
                                   },
                      "fullUrl":  "Patient/cesarean-first-time-006",
                      "request":  {
                                      "method":  "PUT",
                                      "url":  "Patient/cesarean-first-time-006"
                                  }
                  },
                  {
                      "resource":  {
                                       "id":  "enc-cesarean-first-time-006",
                                       "class":  {
                                                     "code":  "IMP",
                                                     "display":  "住院"
                                                 },
                                       "resourceType":  "Encounter",
                                       "subject":  {
                                                       "reference":  "Patient/cesarean-first-time-006"
                                                   },
                                       "period":  {
                                                      "start":  "2025-11-18T08:00:00Z",
                                                      "end":  "2025-11-18T20:00:00Z"
                                                  },
                                       "status":  "finished"
                                   },
                      "fullUrl":  "Encounter/enc-cesarean-first-time-006",
                      "request":  {
                                      "method":  "PUT",
                                      "url":  "Encounter/enc-cesarean-first-time-006"
                                  }
                  },
                  {
                      "resource":  {
                                       "id":  "proc-cesarean-first-time-006",
                                       "code":  {
                                                    "coding":  [
                                                                   {
                                                                       "code":  "80402C",
                                                                       "display":  "剖腹生產",
                                                                       "system":  "https://twhealth.mohw.gov.tw/fhir/CodeSystem/health-insurance"
                                                                   }
                                                               ]
                                                },
                                       "subject":  {
                                                       "reference":  "Patient/cesarean-first-time-006"
                                                   },
                                       "encounter":  {
                                                         "reference":  "Encounter/enc-cesarean-first-time-006"
                                                     },
                                       "resourceType":  "Procedure",
                                       "performedDateTime":  "2025-11-18T10:00:00Z",
                                       "status":  "completed"
                                   },
                      "fullUrl":  "Procedure/proc-cesarean-first-time-006",
                      "request":  {
                                      "method":  "PUT",
                                      "url":  "Procedure/proc-cesarean-first-time-006"
                                  }
                  },
                  {
                      "resource":  {
                                       "resourceType":  "Condition",
                                       "encounter":  {
                                                         "reference":  "Encounter/enc-cesarean-first-time-006"
                                                     },
                                       "code":  {
                                                    "coding":  [
                                                                   {
                                                                       "code":  "O82",
                                                                       "display":  "剖腹產式分娩",
                                                                       "system":  "http://hl7.org/fhir/sid/icd-10-cm"
                                                                   }
                                                               ]
                                                },
                                       "id":  "cond-cesarean-first-time-006",
                                       "subject":  {
                                                       "reference":  "Patient/cesarean-first-time-006"
                                                   }
                                   },
                      "fullUrl":  "Condition/cond-cesarean-first-time-006",
                      "request":  {
                                      "method":  "PUT",
                                      "url":  "Condition/cond-cesarean-first-time-006"
                                  }
                  },
                  {
                      "resource":  {
                                       "id":  "obs-cesarean-first-time-006",
                                       "valueInteger":  6,
                                       "code":  {
                                                    "coding":  [
                                                                   {
                                                                       "code":  "11996-6",
                                                                       "display":  "Gravida",
                                                                       "system":  "http://loinc.org"
                                                                   }
                                                               ]
                                                },
                                       "subject":  {
                                                       "reference":  "Patient/cesarean-first-time-006"
                                                   },
                                       "encounter":  {
                                                         "reference":  "Encounter/enc-cesarean-first-time-006"
                                                     },
                                       "resourceType":  "Observation",
                                       "status":  "final"
                                   },
                      "fullUrl":  "Observation/obs-cesarean-first-time-006",
                      "request":  {
                                      "method":  "PUT",
                                      "url":  "Observation/obs-cesarean-first-time-006"
                                  }
                  },
                  {
                      "resource":  {
                                       "resourceType":  "Patient",
                                       "birthDate":  "1990-01-01",
                                       "id":  "cesarean-first-time-007",
                                       "gender":  "female"
                                   },
                      "fullUrl":  "Patient/cesarean-first-time-007",
                      "request":  {
                                      "method":  "PUT",
                                      "url":  "Patient/cesarean-first-time-007"
                                  }
                  },
                  {
                      "resource":  {
                                       "id":  "enc-cesarean-first-time-007",
                                       "class":  {
                                                     "code":  "IMP",
                                                     "display":  "住院"
                                                 },
                                       "resourceType":  "Encounter",
                                       "subject":  {
                                                       "reference":  "Patient/cesarean-first-time-007"
                                                   },
                                       "period":  {
                                                      "start":  "2025-11-25T08:00:00Z",
                                                      "end":  "2025-11-25T20:00:00Z"
                                                  },
                                       "status":  "finished"
                                   },
                      "fullUrl":  "Encounter/enc-cesarean-first-time-007",
                      "request":  {
                                      "method":  "PUT",
                                      "url":  "Encounter/enc-cesarean-first-time-007"
                                  }
                  },
                  {
                      "resource":  {
                                       "id":  "proc-cesarean-first-time-007",
                                       "code":  {
                                                    "coding":  [
                                                                   {
                                                                       "code":  "80402C",
                                                                       "display":  "剖腹生產",
                                                                       "system":  "https://twhealth.mohw.gov.tw/fhir/CodeSystem/health-insurance"
                                                                   }
                                                               ]
                                                },
                                       "subject":  {
                                                       "reference":  "Patient/cesarean-first-time-007"
                                                   },
                                       "encounter":  {
                                                         "reference":  "Encounter/enc-cesarean-first-time-007"
                                                     },
                                       "resourceType":  "Procedure",
                                       "performedDateTime":  "2025-11-25T10:00:00Z",
                                       "status":  "completed"
                                   },
                      "fullUrl":  "Procedure/proc-cesarean-first-time-007",
                      "request":  {
                                      "method":  "PUT",
                                      "url":  "Procedure/proc-cesarean-first-time-007"
                                  }
                  },
                  {
                      "resource":  {
                                       "resourceType":  "Condition",
                                       "encounter":  {
                                                         "reference":  "Encounter/enc-cesarean-first-time-007"
                                                     },
                                       "code":  {
                                                    "coding":  [
                                                                   {
                                                                       "code":  "O82",
                                                                       "display":  "剖腹產式分娩",
                                                                       "system":  "http://hl7.org/fhir/sid/icd-10-cm"
                                                                   }
                                                               ]
                                                },
                                       "id":  "cond-cesarean-first-time-007",
                                       "subject":  {
                                                       "reference":  "Patient/cesarean-first-time-007"
                                                   }
                                   },
                      "fullUrl":  "Condition/cond-cesarean-first-time-007",
                      "request":  {
                                      "method":  "PUT",
                                      "url":  "Condition/cond-cesarean-first-time-007"
                                  }
                  },
                  {
                      "resource":  {
                                       "id":  "obs-cesarean-first-time-007",
                                       "valueInteger":  7,
                                       "code":  {
                                                    "coding":  [
                                                                   {
                                                                       "code":  "11996-6",
                                                                       "display":  "Gravida",
                                                                       "system":  "http://loinc.org"
                                                                   }
                                                               ]
                                                },
                                       "subject":  {
                                                       "reference":  "Patient/cesarean-first-time-007"
                                                   },
                                       "encounter":  {
                                                         "reference":  "Encounter/enc-cesarean-first-time-007"
                                                     },
                                       "resourceType":  "Observation",
                                       "status":  "final"
                                   },
                      "fullUrl":  "Observation/obs-cesarean-first-time-007",
                      "request":  {
                                      "method":  "PUT",
                                      "url":  "Observation/obs-cesarean-first-time-007"
                                  }
                  },
                  {
                      "resource":  {
                                       "resourceType":  "Patient",
                                       "birthDate":  "1990-01-01",
                                       "id":  "cesarean-first-time-008",
                                       "gender":  "female"
                                   },
                      "fullUrl":  "Patient/cesarean-first-time-008",
                      "request":  {
                                      "method":  "PUT",
                                      "url":  "Patient/cesarean-first-time-008"
                                  }
                  },
                  {
                      "resource":  {
                                       "id":  "enc-cesarean-first-time-008",
                                       "class":  {
                                                     "code":  "IMP",
                                                     "display":  "住院"
                                                 },
                                       "resourceType":  "Encounter",
                                       "subject":  {
                                                       "reference":  "Patient/cesarean-first-time-008"
                                                   },
                                       "period":  {
                                                      "start":  "2025-11-28T08:00:00Z",
                                                      "end":  "2025-11-28T20:00:00Z"
                                                  },
                                       "status":  "finished"
                                   },
                      "fullUrl":  "Encounter/enc-cesarean-first-time-008",
                      "request":  {
                                      "method":  "PUT",
                                      "url":  "Encounter/enc-cesarean-first-time-008"
                                  }
                  },
                  {
                      "resource":  {
                                       "id":  "proc-cesarean-first-time-008",
                                       "code":  {
                                                    "coding":  [
                                                                   {
                                                                       "code":  "80402C",
                                                                       "display":  "剖腹生產",
                                                                       "system":  "https://twhealth.mohw.gov.tw/fhir/CodeSystem/health-insurance"
                                                                   }
                                                               ]
                                                },
                                       "subject":  {
                                                       "reference":  "Patient/cesarean-first-time-008"
                                                   },
                                       "encounter":  {
                                                         "reference":  "Encounter/enc-cesarean-first-time-008"
                                                     },
                                       "resourceType":  "Procedure",
                                       "performedDateTime":  "2025-11-28T10:00:00Z",
                                       "status":  "completed"
                                   },
                      "fullUrl":  "Procedure/proc-cesarean-first-time-008",
                      "request":  {
                                      "method":  "PUT",
                                      "url":  "Procedure/proc-cesarean-first-time-008"
                                  }
                  },
                  {
                      "resource":  {
                                       "resourceType":  "Condition",
                                       "encounter":  {
                                                         "reference":  "Encounter/enc-cesarean-first-time-008"
                                                     },
                                       "code":  {
                                                    "coding":  [
                                                                   {
                                                                       "code":  "O82",
                                                                       "display":  "剖腹產式分娩",
                                                                       "system":  "http://hl7.org/fhir/sid/icd-10-cm"
                                                                   }
                                                               ]
                                                },
                                       "id":  "cond-cesarean-first-time-008",
                                       "subject":  {
                                                       "reference":  "Patient/cesarean-first-time-008"
                                                   }
                                   },
                      "fullUrl":  "Condition/cond-cesarean-first-time-008",
                      "request":  {
                                      "method":  "PUT",
                                      "url":  "Condition/cond-cesarean-first-time-008"
                                  }
                  },
                  {
                      "resource":  {
                                       "id":  "obs-cesarean-first-time-008",
                                       "valueInteger":  8,
                                       "code":  {
                                                    "coding":  [
                                                                   {
                                                                       "code":  "11996-6",
                                                                       "display":  "Gravida",
                                                                       "system":  "http://loinc.org"
                                                                   }
                                                               ]
                                                },
                                       "subject":  {
                                                       "reference":  "Patient/cesarean-first-time-008"
                                                   },
                                       "encounter":  {
                                                         "reference":  "Encounter/enc-cesarean-first-time-008"
                                                     },
                                       "resourceType":  "Observation",
                                       "status":  "final"
                                   },
                      "fullUrl":  "Observation/obs-cesarean-first-time-008",
                      "request":  {
                                      "method":  "PUT",
                                      "url":  "Observation/obs-cesarean-first-time-008"
                                  }
                  },
                  {
                      "resource":  {
                                       "resourceType":  "Patient",
                                       "birthDate":  "1990-01-01",
                                       "id":  "cesarean-first-time-009",
                                       "gender":  "female"
                                   },
                      "fullUrl":  "Patient/cesarean-first-time-009",
                      "request":  {
                                      "method":  "PUT",
                                      "url":  "Patient/cesarean-first-time-009"
                                  }
                  },
                  {
                      "resource":  {
                                       "id":  "enc-cesarean-first-time-009",
                                       "class":  {
                                                     "code":  "IMP",
                                                     "display":  "住院"
                                                 },
                                       "resourceType":  "Encounter",
                                       "subject":  {
                                                       "reference":  "Patient/cesarean-first-time-009"
                                                   },
                                       "period":  {
                                                      "start":  "2025-11-30T08:00:00Z",
                                                      "end":  "2025-11-30T20:00:00Z"
                                                  },
                                       "status":  "finished"
                                   },
                      "fullUrl":  "Encounter/enc-cesarean-first-time-009",
                      "request":  {
                                      "method":  "PUT",
                                      "url":  "Encounter/enc-cesarean-first-time-009"
                                  }
                  },
                  {
                      "resource":  {
                                       "id":  "proc-cesarean-first-time-009",
                                       "code":  {
                                                    "coding":  [
                                                                   {
                                                                       "code":  "80402C",
                                                                       "display":  "剖腹生產",
                                                                       "system":  "https://twhealth.mohw.gov.tw/fhir/CodeSystem/health-insurance"
                                                                   }
                                                               ]
                                                },
                                       "subject":  {
                                                       "reference":  "Patient/cesarean-first-time-009"
                                                   },
                                       "encounter":  {
                                                         "reference":  "Encounter/enc-cesarean-first-time-009"
                                                     },
                                       "resourceType":  "Procedure",
                                       "performedDateTime":  "2025-11-30T10:00:00Z",
                                       "status":  "completed"
                                   },
                      "fullUrl":  "Procedure/proc-cesarean-first-time-009",
                      "request":  {
                                      "method":  "PUT",
                                      "url":  "Procedure/proc-cesarean-first-time-009"
                                  }
                  },
                  {
                      "resource":  {
                                       "resourceType":  "Condition",
                                       "encounter":  {
                                                         "reference":  "Encounter/enc-cesarean-first-time-009"
                                                     },
                                       "code":  {
                                                    "coding":  [
                                                                   {
                                                                       "code":  "O82",
                                                                       "display":  "剖腹產式分娩",
                                                                       "system":  "http://hl7.org/fhir/sid/icd-10-cm"
                                                                   }
                                                               ]
                                                },
                                       "id":  "cond-cesarean-first-time-009",
                                       "subject":  {
                                                       "reference":  "Patient/cesarean-first-time-009"
                                                   }
                                   },
                      "fullUrl":  "Condition/cond-cesarean-first-time-009",
                      "request":  {
                                      "method":  "PUT",
                                      "url":  "Condition/cond-cesarean-first-time-009"
                                  }
                  },
                  {
                      "resource":  {
                                       "id":  "obs-cesarean-first-time-009",
                                       "valueInteger":  9,
                                       "code":  {
                                                    "coding":  [
                                                                   {
                                                                       "code":  "11996-6",
                                                                       "display":  "Gravida",
                                                                       "system":  "http://loinc.org"
                                                                   }
                                                               ]
                                                },
                                       "subject":  {
                                                       "reference":  "Patient/cesarean-first-time-009"
                                                   },
                                       "encounter":  {
                                                         "reference":  "Encounter/enc-cesarean-first-time-009"
                                                     },
                                       "resourceType":  "Observation",
                                       "status":  "final"
                                   },
                      "fullUrl":  "Observation/obs-cesarean-first-time-009",
                      "request":  {
                                      "method":  "PUT",
                                      "url":  "Observation/obs-cesarean-first-time-009"
                                  }
                  }
              ],
    "type":  "transaction"
}
