{
  "resourceType": "Bundle",
  "type": "transaction",
  "entry": [
    {
      "request": {"method": "PUT", "url": "Organization/org-10drugs"},
      "resource": {
        "resourceType": "Organization",
        "id": "org-10drugs",
        "name": "10Drug Test Hospital"
      }
    },
    {
      "request": {"method": "PUT", "url": "Patient/pt-10d-001"},
      "resource": {
        "resourceType": "Patient",
        "id": "pt-10d-001",
        "gender": "male",
        "birthDate": "1960-01-01"
      }
    },
    {
      "request": {"method": "PUT", "url": "Patient/pt-10d-002"},
      "resource": {
        "resourceType": "Patient",
        "id": "pt-10d-002",
        "gender": "female",
        "birthDate": "1955-01-01"
      }
    },
    {
      "request": {"method": "PUT", "url": "Patient/pt-10d-003"},
      "resource": {
        "resourceType": "Patient",
        "id": "pt-10d-003",
        "gender": "male",
        "birthDate": "1950-01-01"
      }
    },
    {
      "request": {"method": "PUT", "url": "Encounter/enc-10d-001"},
      "resource": {
        "resourceType": "Encounter",
        "id": "enc-10d-001",
        "status": "finished",
        "class": {"system": "http://terminology.hl7.org/CodeSystem/v3-ActCode", "code": "AMB"},
        "subject": {"reference": "Patient/pt-10d-001"},
        "serviceProvider": {"reference": "Organization/org-10drugs"},
        "period": {"start": "2025-10-15T09:00:00+08:00", "end": "2025-10-15T09:30:00+08:00"}
      }
    },
    {"request": {"method": "PUT", "url": "MedicationRequest/med-001-01"}, "resource": {"resourceType": "MedicationRequest", "id": "med-001-01", "status": "completed", "intent": "order", "medicationCodeableConcept": {"coding": [{"code": "A012345671"}]}, "subject": {"reference": "Patient/pt-10d-001"}, "encounter": {"reference": "Encounter/enc-10d-001"}}},
    {"request": {"method": "PUT", "url": "MedicationRequest/med-001-02"}, "resource": {"resourceType": "MedicationRequest", "id": "med-001-02", "status": "completed", "intent": "order", "medicationCodeableConcept": {"coding": [{"code": "B023456781"}]}, "subject": {"reference": "Patient/pt-10d-001"}, "encounter": {"reference": "Encounter/enc-10d-001"}}},
    {"request": {"method": "PUT", "url": "MedicationRequest/med-001-03"}, "resource": {"resourceType": "MedicationRequest", "id": "med-001-03", "status": "completed", "intent": "order", "medicationCodeableConcept": {"coding": [{"code": "C034567891"}]}, "subject": {"reference": "Patient/pt-10d-001"}, "encounter": {"reference": "Encounter/enc-10d-001"}}},
    {"request": {"method": "PUT", "url": "MedicationRequest/med-001-04"}, "resource": {"resourceType": "MedicationRequest", "id": "med-001-04", "status": "completed", "intent": "order", "medicationCodeableConcept": {"coding": [{"code": "D045678901"}]}, "subject": {"reference": "Patient/pt-10d-001"}, "encounter": {"reference": "Encounter/enc-10d-001"}}},
    {"request": {"method": "PUT", "url": "MedicationRequest/med-001-05"}, "resource": {"resourceType": "MedicationRequest", "id": "med-001-05", "status": "completed", "intent": "order", "medicationCodeableConcept": {"coding": [{"code": "E056789011"}]}, "subject": {"reference": "Patient/pt-10d-001"}, "encounter": {"reference": "Encounter/enc-10d-001"}}},
    {"request": {"method": "PUT", "url": "MedicationRequest/med-001-06"}, "resource": {"resourceType": "MedicationRequest", "id": "med-001-06", "status": "completed", "intent": "order", "medicationCodeableConcept": {"coding": [{"code": "F067890121"}]}, "subject": {"reference": "Patient/pt-10d-001"}, "encounter": {"reference": "Encounter/enc-10d-001"}}},
    {"request": {"method": "PUT", "url": "MedicationRequest/med-001-07"}, "resource": {"resourceType": "MedicationRequest", "id": "med-001-07", "status": "completed", "intent": "order", "medicationCodeableConcept": {"coding": [{"code": "G078901231"}]}, "subject": {"reference": "Patient/pt-10d-001"}, "encounter": {"reference": "Encounter/enc-10d-001"}}},
    {"request": {"method": "PUT", "url": "MedicationRequest/med-001-08"}, "resource": {"resourceType": "MedicationRequest", "id": "med-001-08", "status": "completed", "intent": "order", "medicationCodeableConcept": {"coding": [{"code": "H089012341"}]}, "subject": {"reference": "Patient/pt-10d-001"}, "encounter": {"reference": "Encounter/enc-10d-001"}}},
    {"request": {"method": "PUT", "url": "MedicationRequest/med-001-09"}, "resource": {"resourceType": "MedicationRequest", "id": "med-001-09", "status": "completed", "intent": "order", "medicationCodeableConcept": {"coding": [{"code": "I090123451"}]}, "subject": {"reference": "Patient/pt-10d-001"}, "encounter": {"reference": "Encounter/enc-10d-001"}}},
    {"request": {"method": "PUT", "url": "MedicationRequest/med-001-10"}, "resource": {"resourceType": "MedicationRequest", "id": "med-001-10", "status": "completed", "intent": "order", "medicationCodeableConcept": {"coding": [{"code": "J101234561"}]}, "subject": {"reference": "Patient/pt-10d-001"}, "encounter": {"reference": "Encounter/enc-10d-001"}}},
    {
      "request": {"method": "PUT", "url": "Encounter/enc-10d-002"},
      "resource": {
        "resourceType": "Encounter",
        "id": "enc-10d-002",
        "status": "finished",
        "class": {"system": "http://terminology.hl7.org/CodeSystem/v3-ActCode", "code": "AMB"},
        "subject": {"reference": "Patient/pt-10d-002"},
        "serviceProvider": {"reference": "Organization/org-10drugs"},
        "period": {"start": "2025-11-10T10:00:00+08:00", "end": "2025-11-10T10:30:00+08:00"}
      }
    },
    {"request": {"method": "PUT", "url": "MedicationRequest/med-002-01"}, "resource": {"resourceType": "MedicationRequest", "id": "med-002-01", "status": "completed", "intent": "order", "medicationCodeableConcept": {"coding": [{"code": "K112345671"}]}, "subject": {"reference": "Patient/pt-10d-002"}, "encounter": {"reference": "Encounter/enc-10d-002"}}},
    {"request": {"method": "PUT", "url": "MedicationRequest/med-002-02"}, "resource": {"resourceType": "MedicationRequest", "id": "med-002-02", "status": "completed", "intent": "order", "medicationCodeableConcept": {"coding": [{"code": "L123456781"}]}, "subject": {"reference": "Patient/pt-10d-002"}, "encounter": {"reference": "Encounter/enc-10d-002"}}},
    {"request": {"method": "PUT", "url": "MedicationRequest/med-002-03"}, "resource": {"resourceType": "MedicationRequest", "id": "med-002-03", "status": "completed", "intent": "order", "medicationCodeableConcept": {"coding": [{"code": "M134567891"}]}, "subject": {"reference": "Patient/pt-10d-002"}, "encounter": {"reference": "Encounter/enc-10d-002"}}},
    {"request": {"method": "PUT", "url": "MedicationRequest/med-002-04"}, "resource": {"resourceType": "MedicationRequest", "id": "med-002-04", "status": "completed", "intent": "order", "medicationCodeableConcept": {"coding": [{"code": "N145678901"}]}, "subject": {"reference": "Patient/pt-10d-002"}, "encounter": {"reference": "Encounter/enc-10d-002"}}},
    {"request": {"method": "PUT", "url": "MedicationRequest/med-002-05"}, "resource": {"resourceType": "MedicationRequest", "id": "med-002-05", "status": "completed", "intent": "order", "medicationCodeableConcept": {"coding": [{"code": "O156789011"}]}, "subject": {"reference": "Patient/pt-10d-002"}, "encounter": {"reference": "Encounter/enc-10d-002"}}},
    {
      "request": {"method": "PUT", "url": "Encounter/enc-10d-003"},
      "resource": {
        "resourceType": "Encounter",
        "id": "enc-10d-003",
        "status": "finished",
        "class": {"system": "http://terminology.hl7.org/CodeSystem/v3-ActCode", "code": "AMB"},
        "subject": {"reference": "Patient/pt-10d-003"},
        "serviceProvider": {"reference": "Organization/org-10drugs"},
        "period": {"start": "2025-12-05T14:00:00+08:00", "end": "2025-12-05T14:30:00+08:00"}
      }
    },
    {"request": {"method": "PUT", "url": "MedicationRequest/med-003-01"}, "resource": {"resourceType": "MedicationRequest", "id": "med-003-01", "status": "completed", "intent": "order", "medicationCodeableConcept": {"coding": [{"code": "P167890121"}]}, "subject": {"reference": "Patient/pt-10d-003"}, "encounter": {"reference": "Encounter/enc-10d-003"}}},
    {"request": {"method": "PUT", "url": "MedicationRequest/med-003-02"}, "resource": {"resourceType": "MedicationRequest", "id": "med-003-02", "status": "completed", "intent": "order", "medicationCodeableConcept": {"coding": [{"code": "Q178901231"}]}, "subject": {"reference": "Patient/pt-10d-003"}, "encounter": {"reference": "Encounter/enc-10d-003"}}},
    {"request": {"method": "PUT", "url": "MedicationRequest/med-003-03"}, "resource": {"resourceType": "MedicationRequest", "id": "med-003-03", "status": "completed", "intent": "order", "medicationCodeableConcept": {"coding": [{"code": "R189012341"}]}, "subject": {"reference": "Patient/pt-10d-003"}, "encounter": {"reference": "Encounter/enc-10d-003"}}},
    {"request": {"method": "PUT", "url": "MedicationRequest/med-003-04"}, "resource": {"resourceType": "MedicationRequest", "id": "med-003-04", "status": "completed", "intent": "order", "medicationCodeableConcept": {"coding": [{"code": "S190123451"}]}, "subject": {"reference": "Patient/pt-10d-003"}, "encounter": {"reference": "Encounter/enc-10d-003"}}},
    {"request": {"method": "PUT", "url": "MedicationRequest/med-003-05"}, "resource": {"resourceType": "MedicationRequest", "id": "med-003-05", "status": "completed", "intent": "order", "medicationCodeableConcept": {"coding": [{"code": "T201234561"}]}, "subject": {"reference": "Patient/pt-10d-003"}, "encounter": {"reference": "Encounter/enc-10d-003"}}},
    {"request": {"method": "PUT", "url": "MedicationRequest/med-003-06"}, "resource": {"resourceType": "MedicationRequest", "id": "med-003-06", "status": "completed", "intent": "order", "medicationCodeableConcept": {"coding": [{"code": "U212345671"}]}, "subject": {"reference": "Patient/pt-10d-003"}, "encounter": {"reference": "Encounter/enc-10d-003"}}},
    {"request": {"method": "PUT", "url": "MedicationRequest/med-003-07"}, "resource": {"resourceType": "MedicationRequest", "id": "med-003-07", "status": "completed", "intent": "order", "medicationCodeableConcept": {"coding": [{"code": "V223456781"}]}, "subject": {"reference": "Patient/pt-10d-003"}, "encounter": {"reference": "Encounter/enc-10d-003"}}},
    {"request": {"method": "PUT", "url": "MedicationRequest/med-003-08"}, "resource": {"resourceType": "MedicationRequest", "id": "med-003-08", "status": "completed", "intent": "order", "medicationCodeableConcept": {"coding": [{"code": "W234567891"}]}, "subject": {"reference": "Patient/pt-10d-003"}, "encounter": {"reference": "Encounter/enc-10d-003"}}},
    {"request": {"method": "PUT", "url": "MedicationRequest/med-003-09"}, "resource": {"resourceType": "MedicationRequest", "id": "med-003-09", "status": "completed", "intent": "order", "medicationCodeableConcept": {"coding": [{"code": "X245678901"}]}, "subject": {"reference": "Patient/pt-10d-003"}, "encounter": {"reference": "Encounter/enc-10d-003"}}},
    {"request": {"method": "PUT", "url": "MedicationRequest/med-003-10"}, "resource": {"resourceType": "MedicationRequest", "id": "med-003-10", "status": "completed", "intent": "order", "medicationCodeableConcept": {"coding": [{"code": "Y256789011"}]}, "subject": {"reference": "Patient/pt-10d-003"}, "encounter": {"reference": "Encounter/enc-10d-003"}}},
    {"request": {"method": "PUT", "url": "MedicationRequest/med-003-11"}, "resource": {"resourceType": "MedicationRequest", "id": "med-003-11", "status": "completed", "intent": "order", "medicationCodeableConcept": {"coding": [{"code": "Z267890121"}]}, "subject": {"reference": "Patient/pt-10d-003"}, "encounter": {"reference": "Encounter/enc-10d-003"}}},
    {"request": {"method": "PUT", "url": "MedicationRequest/med-003-12"}, "resource": {"resourceType": "MedicationRequest", "id": "med-003-12", "status": "completed", "intent": "order", "medicationCodeableConcept": {"coding": [{"code": "A278901231"}]}, "subject": {"reference": "Patient/pt-10d-003"}, "encounter": {"reference": "Encounter/enc-10d-003"}}}
  ]
}
