{
  "resourceType": "Bundle",
  "type": "transaction",
  "entry": [
    {
      "fullUrl": "urn:uuid:patient-1",
      "resource": {
        "resourceType": "Patient",
        "id": "DIABETES-P1-2025Q4",
        "gender": "male",
        "birthDate": "1968-03-20",
        "name": [
          {
            "text": "張三",
            "family": "Zhang",
            "given": ["San"]
          }
        ]
      },
      "request": {
        "method": "PUT",
        "url": "Patient/DIABETES-P1-2025Q4"
      }
    },
    {
      "fullUrl": "urn:uuid:encounter-1",
      "resource": {
        "resourceType": "Encounter",
        "id": "DIABETES-E1-2025Q4",
        "status": "finished",
        "class": {
          "system": "http://terminology.hl7.org/CodeSystem/v3-ActCode",
          "code": "AMB",
          "display": "ambulatory"
        },
        "subject": {
          "reference": "Patient/DIABETES-P1-2025Q4"
        },
        "period": {
          "start": "2025-10-01T09:00:00+08:00",
          "end": "2025-10-01T09:30:00+08:00"
        }
      },
      "request": {
        "method": "PUT",
        "url": "Encounter/DIABETES-E1-2025Q4"
      }
    },
    {
      "fullUrl": "urn:uuid:medication-1",
      "resource": {
        "resourceType": "MedicationRequest",
        "id": "DIABETES-M1-2025Q4",
        "status": "completed",
        "intent": "order",
        "medicationCodeableConcept": {
          "coding": [
            {
              "system": "http://www.whocc.no/atc",
              "code": "A10BA02",
              "display": "Metformin"
            }
          ],
          "text": "庫魯化 Metformin 500mg"
        },
        "subject": {
          "reference": "Patient/DIABETES-P1-2025Q4"
        },
        "encounter": {
          "reference": "Encounter/DIABETES-E1-2025Q4"
        },
        "authoredOn": "2025-10-01T09:00:00+08:00",
        "dosageInstruction": [
          {
            "timing": {
              "repeat": {
                "boundsPeriod": {
                  "start": "2025-10-01",
                  "end": "2025-10-28"
                },
                "frequency": 2,
                "period": 1,
                "periodUnit": "d"
              }
            },
            "doseAndRate": [
              {
                "doseQuantity": {
                  "value": 1,
                  "unit": "tablet"
                }
              }
            ]
          }
        ],
        "dispenseRequest": {
          "validityPeriod": {
            "start": "2025-10-01",
            "end": "2025-10-28"
          },
          "quantity": {
            "value": 56,
            "unit": "tablet"
          },
          "expectedSupplyDuration": {
            "value": 28,
            "unit": "days",
            "system": "http://unitsofmeasure.org",
            "code": "d"
          }
        }
      },
      "request": {
        "method": "PUT",
        "url": "MedicationRequest/DIABETES-M1-2025Q4"
      }
    },
    {
      "fullUrl": "urn:uuid:encounter-2",
      "resource": {
        "resourceType": "Encounter",
        "id": "DIABETES-E2-2025Q4",
        "status": "finished",
        "class": {
          "system": "http://terminology.hl7.org/CodeSystem/v3-ActCode",
          "code": "AMB",
          "display": "ambulatory"
        },
        "subject": {
          "reference": "Patient/DIABETES-P1-2025Q4"
        },
        "period": {
          "start": "2025-10-20T10:00:00+08:00",
          "end": "2025-10-20T10:30:00+08:00"
        }
      },
      "request": {
        "method": "PUT",
        "url": "Encounter/DIABETES-E2-2025Q4"
      }
    },
    {
      "fullUrl": "urn:uuid:medication-2",
      "resource": {
        "resourceType": "MedicationRequest",
        "id": "DIABETES-M2-2025Q4",
        "status": "completed",
        "intent": "order",
        "medicationCodeableConcept": {
          "coding": [
            {
              "system": "http://www.whocc.no/atc",
              "code": "A10BA02",
              "display": "Metformin"
            }
          ],
          "text": "庫魯化 Metformin 500mg"
        },
        "subject": {
          "reference": "Patient/DIABETES-P1-2025Q4"
        },
        "encounter": {
          "reference": "Encounter/DIABETES-E2-2025Q4"
        },
        "authoredOn": "2025-10-20T10:00:00+08:00",
        "dosageInstruction": [
          {
            "timing": {
              "repeat": {
                "boundsPeriod": {
                  "start": "2025-10-20",
                  "end": "2025-11-16"
                },
                "frequency": 2,
                "period": 1,
                "periodUnit": "d"
              }
            },
            "doseAndRate": [
              {
                "doseQuantity": {
                  "value": 1,
                  "unit": "tablet"
                }
              }
            ]
          }
        ],
        "dispenseRequest": {
          "validityPeriod": {
            "start": "2025-10-20",
            "end": "2025-11-16"
          },
          "quantity": {
            "value": 56,
            "unit": "tablet"
          },
          "expectedSupplyDuration": {
            "value": 28,
            "unit": "days",
            "system": "http://unitsofmeasure.org",
            "code": "d"
          }
        }
      },
      "request": {
        "method": "PUT",
        "url": "MedicationRequest/DIABETES-M2-2025Q4"
      }
    },
    {
      "fullUrl": "urn:uuid:patient-2",
      "resource": {
        "resourceType": "Patient",
        "id": "DIABETES-P2-2025Q4",
        "gender": "female",
        "birthDate": "1972-11-08",
        "name": [
          {
            "text": "李四",
            "family": "Li",
            "given": ["Si"]
          }
        ]
      },
      "request": {
        "method": "PUT",
        "url": "Patient/DIABETES-P2-2025Q4"
      }
    },
    {
      "fullUrl": "urn:uuid:encounter-3",
      "resource": {
        "resourceType": "Encounter",
        "id": "DIABETES-E3-2025Q4",
        "status": "finished",
        "class": {
          "system": "http://terminology.hl7.org/CodeSystem/v3-ActCode",
          "code": "AMB",
          "display": "ambulatory"
        },
        "subject": {
          "reference": "Patient/DIABETES-P2-2025Q4"
        },
        "period": {
          "start": "2025-10-05T14:00:00+08:00",
          "end": "2025-10-05T14:30:00+08:00"
        }
      },
      "request": {
        "method": "PUT",
        "url": "Encounter/DIABETES-E3-2025Q4"
      }
    },
    {
      "fullUrl": "urn:uuid:medication-3",
      "resource": {
        "resourceType": "MedicationRequest",
        "id": "DIABETES-M3-2025Q4",
        "status": "completed",
        "intent": "order",
        "medicationCodeableConcept": {
          "coding": [
            {
              "system": "http://www.whocc.no/atc",
              "code": "A10BB12",
              "display": "Glimepiride"
            }
          ],
          "text": "瑪爾胰 Glimepiride 2mg"
        },
        "subject": {
          "reference": "Patient/DIABETES-P2-2025Q4"
        },
        "encounter": {
          "reference": "Encounter/DIABETES-E3-2025Q4"
        },
        "authoredOn": "2025-10-05T14:00:00+08:00",
        "dosageInstruction": [
          {
            "timing": {
              "repeat": {
                "boundsPeriod": {
                  "start": "2025-10-05",
                  "end": "2025-11-03"
                },
                "frequency": 1,
                "period": 1,
                "periodUnit": "d"
              }
            },
            "doseAndRate": [
              {
                "doseQuantity": {
                  "value": 1,
                  "unit": "tablet"
                }
              }
            ]
          }
        ],
        "dispenseRequest": {
          "validityPeriod": {
            "start": "2025-10-05",
            "end": "2025-11-03"
          },
          "quantity": {
            "value": 30,
            "unit": "tablet"
          },
          "expectedSupplyDuration": {
            "value": 30,
            "unit": "days",
            "system": "http://unitsofmeasure.org",
            "code": "d"
          }
        }
      },
      "request": {
        "method": "PUT",
        "url": "MedicationRequest/DIABETES-M3-2025Q4"
      }
    },
    {
      "fullUrl": "urn:uuid:encounter-4",
      "resource": {
        "resourceType": "Encounter",
        "id": "DIABETES-E4-2025Q4",
        "status": "finished",
        "class": {
          "system": "http://terminology.hl7.org/CodeSystem/v3-ActCode",
          "code": "AMB",
          "display": "ambulatory"
        },
        "subject": {
          "reference": "Patient/DIABETES-P2-2025Q4"
        },
        "period": {
          "start": "2025-10-25T15:00:00+08:00",
          "end": "2025-10-25T15:30:00+08:00"
        }
      },
      "request": {
        "method": "PUT",
        "url": "Encounter/DIABETES-E4-2025Q4"
      }
    },
    {
      "fullUrl": "urn:uuid:medication-4",
      "resource": {
        "resourceType": "MedicationRequest",
        "id": "DIABETES-M4-2025Q4",
        "status": "completed",
        "intent": "order",
        "medicationCodeableConcept": {
          "coding": [
            {
              "system": "http://www.whocc.no/atc",
              "code": "A10AE04",
              "display": "Insulin Glargine"
            }
          ],
          "text": "蘭德仕 Insulin Glargine 100U/mL"
        },
        "subject": {
          "reference": "Patient/DIABETES-P2-2025Q4"
        },
        "encounter": {
          "reference": "Encounter/DIABETES-E4-2025Q4"
        },
        "authoredOn": "2025-10-25T15:00:00+08:00",
        "dosageInstruction": [
          {
            "timing": {
              "repeat": {
                "boundsPeriod": {
                  "start": "2025-10-25",
                  "end": "2025-11-23"
                },
                "frequency": 1,
                "period": 1,
                "periodUnit": "d"
              }
            },
            "doseAndRate": [
              {
                "doseQuantity": {
                  "value": 20,
                  "unit": "IU"
                }
              }
            ]
          }
        ],
        "dispenseRequest": {
          "validityPeriod": {
            "start": "2025-10-25",
            "end": "2025-11-23"
          },
          "quantity": {
            "value": 600,
            "unit": "IU"
          },
          "expectedSupplyDuration": {
            "value": 30,
            "unit": "days",
            "system": "http://unitsofmeasure.org",
            "code": "d"
          }
        }
      },
      "request": {
        "method": "PUT",
        "url": "MedicationRequest/DIABETES-M4-2025Q4"
      }
    },
    {
      "fullUrl": "urn:uuid:patient-3",
      "resource": {
        "resourceType": "Patient",
        "id": "DIABETES-P3-2025Q4",
        "gender": "male",
        "birthDate": "1965-07-15",
        "name": [
          {
            "text": "王五",
            "family": "Wang",
            "given": ["Wu"]
          }
        ]
      },
      "request": {
        "method": "PUT",
        "url": "Patient/DIABETES-P3-2025Q4"
      }
    },
    {
      "fullUrl": "urn:uuid:encounter-5",
      "resource": {
        "resourceType": "Encounter",
        "id": "DIABETES-E5-2025Q4",
        "status": "finished",
        "class": {
          "system": "http://terminology.hl7.org/CodeSystem/v3-ActCode",
          "code": "AMB",
          "display": "ambulatory"
        },
        "subject": {
          "reference": "Patient/DIABETES-P3-2025Q4"
        },
        "period": {
          "start": "2025-10-01T11:00:00+08:00",
          "end": "2025-10-01T11:30:00+08:00"
        }
      },
      "request": {
        "method": "PUT",
        "url": "Encounter/DIABETES-E5-2025Q4"
      }
    },
    {
      "fullUrl": "urn:uuid:medication-5",
      "resource": {
        "resourceType": "MedicationRequest",
        "id": "DIABETES-M5-2025Q4",
        "status": "completed",
        "intent": "order",
        "medicationCodeableConcept": {
          "coding": [
            {
              "system": "http://www.whocc.no/atc",
              "code": "A10BH01",
              "display": "Sitagliptin"
            }
          ],
          "text": "佳糖維 Sitagliptin 100mg"
        },
        "subject": {
          "reference": "Patient/DIABETES-P3-2025Q4"
        },
        "encounter": {
          "reference": "Encounter/DIABETES-E5-2025Q4"
        },
        "authoredOn": "2025-10-01T11:00:00+08:00",
        "dosageInstruction": [
          {
            "timing": {
              "repeat": {
                "boundsPeriod": {
                  "start": "2025-10-01",
                  "end": "2025-10-28"
                },
                "frequency": 1,
                "period": 1,
                "periodUnit": "d"
              }
            },
            "doseAndRate": [
              {
                "doseQuantity": {
                  "value": 1,
                  "unit": "tablet"
                }
              }
            ]
          }
        ],
        "dispenseRequest": {
          "validityPeriod": {
            "start": "2025-10-01",
            "end": "2025-10-28"
          },
          "quantity": {
            "value": 28,
            "unit": "tablet"
          },
          "expectedSupplyDuration": {
            "value": 28,
            "unit": "days",
            "system": "http://unitsofmeasure.org",
            "code": "d"
          }
        }
      },
      "request": {
        "method": "PUT",
        "url": "MedicationRequest/DIABETES-M5-2025Q4"
      }
    },
    {
      "fullUrl": "urn:uuid:encounter-6",
      "resource": {
        "resourceType": "Encounter",
        "id": "DIABETES-E6-2025Q4",
        "status": "finished",
        "class": {
          "system": "http://terminology.hl7.org/CodeSystem/v3-ActCode",
          "code": "AMB",
          "display": "ambulatory"
        },
        "subject": {
          "reference": "Patient/DIABETES-P3-2025Q4"
        },
        "period": {
          "start": "2025-10-29T11:00:00+08:00",
          "end": "2025-10-29T11:30:00+08:00"
        }
      },
      "request": {
        "method": "PUT",
        "url": "Encounter/DIABETES-E6-2025Q4"
      }
    },
    {
      "fullUrl": "urn:uuid:medication-6",
      "resource": {
        "resourceType": "MedicationRequest",
        "id": "DIABETES-M6-2025Q4",
        "status": "completed",
        "intent": "order",
        "medicationCodeableConcept": {
          "coding": [
            {
              "system": "http://www.whocc.no/atc",
              "code": "A10BH01",
              "display": "Sitagliptin"
            }
          ],
          "text": "佳糖維 Sitagliptin 100mg"
        },
        "subject": {
          "reference": "Patient/DIABETES-P3-2025Q4"
        },
        "encounter": {
          "reference": "Encounter/DIABETES-E6-2025Q4"
        },
        "authoredOn": "2025-10-29T11:00:00+08:00",
        "dosageInstruction": [
          {
            "timing": {
              "repeat": {
                "boundsPeriod": {
                  "start": "2025-10-29",
                  "end": "2025-11-25"
                },
                "frequency": 1,
                "period": 1,
                "periodUnit": "d"
              }
            },
            "doseAndRate": [
              {
                "doseQuantity": {
                  "value": 1,
                  "unit": "tablet"
                }
              }
            ]
          }
        ],
        "dispenseRequest": {
          "validityPeriod": {
            "start": "2025-10-29",
            "end": "2025-11-25"
          },
          "quantity": {
            "value": 28,
            "unit": "tablet"
          },
          "expectedSupplyDuration": {
            "value": 28,
            "unit": "days",
            "system": "http://unitsofmeasure.org",
            "code": "d"
          }
        }
      },
      "request": {
        "method": "PUT",
        "url": "MedicationRequest/DIABETES-M6-2025Q4"
      }
    },
    {
      "fullUrl": "urn:uuid:patient-4",
      "resource": {
        "resourceType": "Patient",
        "id": "DIABETES-P4-2025Q4",
        "gender": "male",
        "birthDate": "1970-02-28",
        "name": [
          {
            "text": "陳六",
            "family": "Chen",
            "given": ["Liu"]
          }
        ]
      },
      "request": {
        "method": "PUT",
        "url": "Patient/DIABETES-P4-2025Q4"
      }
    },
    {
      "fullUrl": "urn:uuid:encounter-7",
      "resource": {
        "resourceType": "Encounter",
        "id": "DIABETES-E7-2025Q4",
        "status": "finished",
        "class": {
          "system": "http://terminology.hl7.org/CodeSystem/v3-ActCode",
          "code": "AMB",
          "display": "ambulatory"
        },
        "subject": {
          "reference": "Patient/DIABETES-P4-2025Q4"
        },
        "period": {
          "start": "2025-10-10T13:00:00+08:00",
          "end": "2025-10-10T13:30:00+08:00"
        }
      },
      "request": {
        "method": "PUT",
        "url": "Encounter/DIABETES-E7-2025Q4"
      }
    },
    {
      "fullUrl": "urn:uuid:medication-7",
      "resource": {
        "resourceType": "MedicationRequest",
        "id": "DIABETES-M7-2025Q4",
        "status": "completed",
        "intent": "order",
        "medicationCodeableConcept": {
          "coding": [
            {
              "system": "http://www.whocc.no/atc",
              "code": "A10BK01",
              "display": "Empagliflozin"
            }
          ],
          "text": "恩排糖 Empagliflozin 10mg"
        },
        "subject": {
          "reference": "Patient/DIABETES-P4-2025Q4"
        },
        "encounter": {
          "reference": "Encounter/DIABETES-E7-2025Q4"
        },
        "authoredOn": "2025-10-10T13:00:00+08:00",
        "dosageInstruction": [
          {
            "timing": {
              "repeat": {
                "boundsPeriod": {
                  "start": "2025-10-10",
                  "end": "2025-11-06"
                },
                "frequency": 1,
                "period": 1,
                "periodUnit": "d"
              }
            },
            "doseAndRate": [
              {
                "doseQuantity": {
                  "value": 1,
                  "unit": "tablet"
                }
              }
            ]
          }
        ],
        "dispenseRequest": {
          "validityPeriod": {
            "start": "2025-10-10",
            "end": "2025-11-06"
          },
          "quantity": {
            "value": 28,
            "unit": "tablet"
          },
          "expectedSupplyDuration": {
            "value": 28,
            "unit": "days",
            "system": "http://unitsofmeasure.org",
            "code": "d"
          }
        }
      },
      "request": {
        "method": "PUT",
        "url": "MedicationRequest/DIABETES-M7-2025Q4"
      }
    },
    {
      "fullUrl": "urn:uuid:encounter-8",
      "resource": {
        "resourceType": "Encounter",
        "id": "DIABETES-E8-2025Q4",
        "status": "finished",
        "class": {
          "system": "http://terminology.hl7.org/CodeSystem/v3-ActCode",
          "code": "AMB",
          "display": "ambulatory"
        },
        "subject": {
          "reference": "Patient/DIABETES-P4-2025Q4"
        },
        "period": {
          "start": "2025-11-07T13:00:00+08:00",
          "end": "2025-11-07T13:30:00+08:00"
        }
      },
      "request": {
        "method": "PUT",
        "url": "Encounter/DIABETES-E8-2025Q4"
      }
    },
    {
      "fullUrl": "urn:uuid:medication-8",
      "resource": {
        "resourceType": "MedicationRequest",
        "id": "DIABETES-M8-2025Q4",
        "status": "completed",
        "intent": "order",
        "medicationCodeableConcept": {
          "coding": [
            {
              "system": "http://www.whocc.no/atc",
              "code": "A10BK01",
              "display": "Empagliflozin"
            }
          ],
          "text": "恩排糖 Empagliflozin 10mg"
        },
        "subject": {
          "reference": "Patient/DIABETES-P4-2025Q4"
        },
        "encounter": {
          "reference": "Encounter/DIABETES-E8-2025Q4"
        },
        "authoredOn": "2025-11-07T13:00:00+08:00",
        "dosageInstruction": [
          {
            "timing": {
              "repeat": {
                "boundsPeriod": {
                  "start": "2025-11-07",
                  "end": "2025-12-04"
                },
                "frequency": 1,
                "period": 1,
                "periodUnit": "d"
              }
            },
            "doseAndRate": [
              {
                "doseQuantity": {
                  "value": 1,
                  "unit": "tablet"
                }
              }
            ]
          }
        ],
        "dispenseRequest": {
          "validityPeriod": {
            "start": "2025-11-07",
            "end": "2025-12-04"
          },
          "quantity": {
            "value": 28,
            "unit": "tablet"
          },
          "expectedSupplyDuration": {
            "value": 28,
            "unit": "days",
            "system": "http://unitsofmeasure.org",
            "code": "d"
          }
        }
      },
      "request": {
        "method": "PUT",
        "url": "MedicationRequest/DIABETES-M8-2025Q4"
      }
    }
  ]
}
