{
  "resourceType": "Bundle",
  "type": "transaction",
  "entry": [
    {
      "fullUrl": "urn:uuid:patient-1",
      "resource": {
        "resourceType": "Patient",
        "id": "ANTITHROMBOTIC-P1-2025Q4",
        "gender": "male",
        "birthDate": "1952-07-15",
        "name": [
          {
            "text": "劉國強",
            "family": "Liu",
            "given": ["Guoqiang"]
          }
        ]
      },
      "request": {
        "method": "PUT",
        "url": "Patient/ANTITHROMBOTIC-P1-2025Q4"
      }
    },
    {
      "fullUrl": "urn:uuid:patient-2",
      "resource": {
        "resourceType": "Patient",
        "id": "ANTITHROMBOTIC-P2-2025Q4",
        "gender": "female",
        "birthDate": "1960-03-28",
        "name": [
          {
            "text": "陳麗華",
            "family": "Chen",
            "given": ["Lihua"]
          }
        ]
      },
      "request": {
        "method": "PUT",
        "url": "Patient/ANTITHROMBOTIC-P2-2025Q4"
      }
    },
    {
      "fullUrl": "urn:uuid:patient-3",
      "resource": {
        "resourceType": "Patient",
        "id": "ANTITHROMBOTIC-P3-2025Q4",
        "gender": "male",
        "birthDate": "1955-11-10",
        "name": [
          {
            "text": "張文華",
            "family": "Zhang",
            "given": ["Wenhua"]
          }
        ]
      },
      "request": {
        "method": "PUT",
        "url": "Patient/ANTITHROMBOTIC-P3-2025Q4"
      }
    },
    {
      "fullUrl": "urn:uuid:patient-4",
      "resource": {
        "resourceType": "Patient",
        "id": "ANTITHROMBOTIC-P4-2025Q4",
        "gender": "female",
        "birthDate": "1958-09-05",
        "name": [
          {
            "text": "林淑珍",
            "family": "Lin",
            "given": ["Shuzhen"]
          }
        ]
      },
      "request": {
        "method": "PUT",
        "url": "Patient/ANTITHROMBOTIC-P4-2025Q4"
      }
    },
    {
      "fullUrl": "urn:uuid:encounter-1",
      "resource": {
        "resourceType": "Encounter",
        "id": "ANTITHROMBOTIC-E1-2025Q4",
        "status": "finished",
        "class": {
          "system": "http://terminology.hl7.org/CodeSystem/v3-ActCode",
          "code": "AMB",
          "display": "ambulatory"
        },
        "subject": {
          "reference": "Patient/ANTITHROMBOTIC-P1-2025Q4"
        },
        "period": {
          "start": "2025-10-01T09:00:00+08:00",
          "end": "2025-10-01T09:30:00+08:00"
        }
      },
      "request": {
        "method": "PUT",
        "url": "Encounter/ANTITHROMBOTIC-E1-2025Q4"
      }
    },
    {
      "fullUrl": "urn:uuid:medication-1",
      "resource": {
        "resourceType": "MedicationRequest",
        "id": "ANTITHROMBOTIC-M1-2025Q4",
        "status": "completed",
        "intent": "order",
        "medicationCodeableConcept": {
          "coding": [
            {
              "system": "http://www.whocc.no/atc",
              "code": "B01AA03",
              "display": "Warfarin"
            }
          ],
          "text": "可邁丁 Warfarin 5mg"
        },
        "subject": {
          "reference": "Patient/ANTITHROMBOTIC-P1-2025Q4"
        },
        "encounter": {
          "reference": "Encounter/ANTITHROMBOTIC-E1-2025Q4"
        },
        "authoredOn": "2025-10-01T09:00:00+08:00",
        "dosageInstruction": [
          {
            "timing": {
              "repeat": {
                "boundsPeriod": {
                  "start": "2025-10-01",
                  "end": "2025-10-28"
                },
                "frequency": 1,
                "period": 1,
                "periodUnit": "d"
              }
            },
            "doseAndRate": [
              {
                "doseQuantity": {
                  "value": 1,
                  "unit": "tablet"
                }
              }
            ]
          }
        ],
        "dispenseRequest": {
          "validityPeriod": {
            "start": "2025-10-01",
            "end": "2025-10-28"
          },
          "quantity": {
            "value": 28,
            "unit": "tablet"
          },
          "expectedSupplyDuration": {
            "value": 28,
            "unit": "days",
            "system": "http://unitsofmeasure.org",
            "code": "d"
          }
        }
      },
      "request": {
        "method": "PUT",
        "url": "MedicationRequest/ANTITHROMBOTIC-M1-2025Q4"
      }
    },
    {
      "fullUrl": "urn:uuid:encounter-2",
      "resource": {
        "resourceType": "Encounter",
        "id": "ANTITHROMBOTIC-E2-2025Q4",
        "status": "finished",
        "class": {
          "system": "http://terminology.hl7.org/CodeSystem/v3-ActCode",
          "code": "AMB",
          "display": "ambulatory"
        },
        "subject": {
          "reference": "Patient/ANTITHROMBOTIC-P1-2025Q4"
        },
        "period": {
          "start": "2025-10-20T10:00:00+08:00",
          "end": "2025-10-20T10:30:00+08:00"
        }
      },
      "request": {
        "method": "PUT",
        "url": "Encounter/ANTITHROMBOTIC-E2-2025Q4"
      }
    },
    {
      "fullUrl": "urn:uuid:medication-2",
      "resource": {
        "resourceType": "MedicationRequest",
        "id": "ANTITHROMBOTIC-M2-2025Q4",
        "status": "completed",
        "intent": "order",
        "medicationCodeableConcept": {
          "coding": [
            {
              "system": "http://www.whocc.no/atc",
              "code": "B01AA03",
              "display": "Warfarin"
            }
          ],
          "text": "可邁丁 Warfarin 5mg"
        },
        "subject": {
          "reference": "Patient/ANTITHROMBOTIC-P1-2025Q4"
        },
        "encounter": {
          "reference": "Encounter/ANTITHROMBOTIC-E2-2025Q4"
        },
        "authoredOn": "2025-10-20T10:00:00+08:00",
        "dosageInstruction": [
          {
            "timing": {
              "repeat": {
                "boundsPeriod": {
                  "start": "2025-10-20",
                  "end": "2025-11-16"
                },
                "frequency": 1,
                "period": 1,
                "periodUnit": "d"
              }
            },
            "doseAndRate": [
              {
                "doseQuantity": {
                  "value": 1,
                  "unit": "tablet"
                }
              }
            ]
          }
        ],
        "dispenseRequest": {
          "validityPeriod": {
            "start": "2025-10-20",
            "end": "2025-11-16"
          },
          "quantity": {
            "value": 28,
            "unit": "tablet"
          },
          "expectedSupplyDuration": {
            "value": 28,
            "unit": "days",
            "system": "http://unitsofmeasure.org",
            "code": "d"
          }
        }
      },
      "request": {
        "method": "PUT",
        "url": "MedicationRequest/ANTITHROMBOTIC-M2-2025Q4"
      }
    },
    {
      "fullUrl": "urn:uuid:encounter-3",
      "resource": {
        "resourceType": "Encounter",
        "id": "ANTITHROMBOTIC-E3-2025Q4",
        "status": "finished",
        "class": {
          "system": "http://terminology.hl7.org/CodeSystem/v3-ActCode",
          "code": "AMB",
          "display": "ambulatory"
        },
        "subject": {
          "reference": "Patient/ANTITHROMBOTIC-P2-2025Q4"
        },
        "period": {
          "start": "2025-10-05T11:00:00+08:00",
          "end": "2025-10-05T11:30:00+08:00"
        }
      },
      "request": {
        "method": "PUT",
        "url": "Encounter/ANTITHROMBOTIC-E3-2025Q4"
      }
    },
    {
      "fullUrl": "urn:uuid:medication-3",
      "resource": {
        "resourceType": "MedicationRequest",
        "id": "ANTITHROMBOTIC-M3-2025Q4",
        "status": "completed",
        "intent": "order",
        "medicationCodeableConcept": {
          "coding": [
            {
              "system": "http://www.whocc.no/atc",
              "code": "B01AC04",
              "display": "Clopidogrel"
            }
          ],
          "text": "保栓通 Clopidogrel 75mg"
        },
        "subject": {
          "reference": "Patient/ANTITHROMBOTIC-P2-2025Q4"
        },
        "encounter": {
          "reference": "Encounter/ANTITHROMBOTIC-E3-2025Q4"
        },
        "authoredOn": "2025-10-05T11:00:00+08:00",
        "dosageInstruction": [
          {
            "timing": {
              "repeat": {
                "boundsPeriod": {
                  "start": "2025-10-05",
                  "end": "2025-11-01"
                },
                "frequency": 1,
                "period": 1,
                "periodUnit": "d"
              }
            },
            "doseAndRate": [
              {
                "doseQuantity": {
                  "value": 1,
                  "unit": "tablet"
                }
              }
            ]
          }
        ],
        "dispenseRequest": {
          "validityPeriod": {
            "start": "2025-10-05",
            "end": "2025-11-01"
          },
          "quantity": {
            "value": 28,
            "unit": "tablet"
          },
          "expectedSupplyDuration": {
            "value": 28,
            "unit": "days",
            "system": "http://unitsofmeasure.org",
            "code": "d"
          }
        }
      },
      "request": {
        "method": "PUT",
        "url": "MedicationRequest/ANTITHROMBOTIC-M3-2025Q4"
      }
    },
    {
      "fullUrl": "urn:uuid:encounter-4",
      "resource": {
        "resourceType": "Encounter",
        "id": "ANTITHROMBOTIC-E4-2025Q4",
        "status": "finished",
        "class": {
          "system": "http://terminology.hl7.org/CodeSystem/v3-ActCode",
          "code": "AMB",
          "display": "ambulatory"
        },
        "subject": {
          "reference": "Patient/ANTITHROMBOTIC-P2-2025Q4"
        },
        "period": {
          "start": "2025-10-25T14:00:00+08:00",
          "end": "2025-10-25T14:30:00+08:00"
        }
      },
      "request": {
        "method": "PUT",
        "url": "Encounter/ANTITHROMBOTIC-E4-2025Q4"
      }
    },
    {
      "fullUrl": "urn:uuid:medication-4",
      "resource": {
        "resourceType": "MedicationRequest",
        "id": "ANTITHROMBOTIC-M4-2025Q4",
        "status": "completed",
        "intent": "order",
        "medicationCodeableConcept": {
          "coding": [
            {
              "system": "http://www.whocc.no/atc",
              "code": "B01AC04",
              "display": "Clopidogrel"
            }
          ],
          "text": "保栓通 Clopidogrel 75mg"
        },
        "subject": {
          "reference": "Patient/ANTITHROMBOTIC-P2-2025Q4"
        },
        "encounter": {
          "reference": "Encounter/ANTITHROMBOTIC-E4-2025Q4"
        },
        "authoredOn": "2025-10-25T14:00:00+08:00",
        "dosageInstruction": [
          {
            "timing": {
              "repeat": {
                "boundsPeriod": {
                  "start": "2025-10-25",
                  "end": "2025-11-21"
                },
                "frequency": 1,
                "period": 1,
                "periodUnit": "d"
              }
            },
            "doseAndRate": [
              {
                "doseQuantity": {
                  "value": 1,
                  "unit": "tablet"
                }
              }
            ]
          }
        ],
        "dispenseRequest": {
          "validityPeriod": {
            "start": "2025-10-25",
            "end": "2025-11-21"
          },
          "quantity": {
            "value": 28,
            "unit": "tablet"
          },
          "expectedSupplyDuration": {
            "value": 28,
            "unit": "days",
            "system": "http://unitsofmeasure.org",
            "code": "d"
          }
        }
      },
      "request": {
        "method": "PUT",
        "url": "MedicationRequest/ANTITHROMBOTIC-M4-2025Q4"
      }
    },
    {
      "fullUrl": "urn:uuid:encounter-5",
      "resource": {
        "resourceType": "Encounter",
        "id": "ANTITHROMBOTIC-E5-2025Q4",
        "status": "finished",
        "class": {
          "system": "http://terminology.hl7.org/CodeSystem/v3-ActCode",
          "code": "AMB",
          "display": "ambulatory"
        },
        "subject": {
          "reference": "Patient/ANTITHROMBOTIC-P3-2025Q4"
        },
        "period": {
          "start": "2025-10-10T09:00:00+08:00",
          "end": "2025-10-10T09:30:00+08:00"
        }
      },
      "request": {
        "method": "PUT",
        "url": "Encounter/ANTITHROMBOTIC-E5-2025Q4"
      }
    },
    {
      "fullUrl": "urn:uuid:medication-5",
      "resource": {
        "resourceType": "MedicationRequest",
        "id": "ANTITHROMBOTIC-M5-2025Q4",
        "status": "completed",
        "intent": "order",
        "medicationCodeableConcept": {
          "coding": [
            {
              "system": "http://www.whocc.no/atc",
              "code": "B01AC06",
              "display": "Aspirin"
            }
          ],
          "text": "阿斯匹靈 Aspirin 100mg"
        },
        "subject": {
          "reference": "Patient/ANTITHROMBOTIC-P3-2025Q4"
        },
        "encounter": {
          "reference": "Encounter/ANTITHROMBOTIC-E5-2025Q4"
        },
        "authoredOn": "2025-10-10T09:00:00+08:00",
        "dosageInstruction": [
          {
            "timing": {
              "repeat": {
                "boundsPeriod": {
                  "start": "2025-10-10",
                  "end": "2025-11-06"
                },
                "frequency": 1,
                "period": 1,
                "periodUnit": "d"
              }
            },
            "doseAndRate": [
              {
                "doseQuantity": {
                  "value": 1,
                  "unit": "tablet"
                }
              }
            ]
          }
        ],
        "dispenseRequest": {
          "validityPeriod": {
            "start": "2025-10-10",
            "end": "2025-11-06"
          },
          "quantity": {
            "value": 28,
            "unit": "tablet"
          },
          "expectedSupplyDuration": {
            "value": 28,
            "unit": "days",
            "system": "http://unitsofmeasure.org",
            "code": "d"
          }
        }
      },
      "request": {
        "method": "PUT",
        "url": "MedicationRequest/ANTITHROMBOTIC-M5-2025Q4"
      }
    },
    {
      "fullUrl": "urn:uuid:encounter-6",
      "resource": {
        "resourceType": "Encounter",
        "id": "ANTITHROMBOTIC-E6-2025Q4",
        "status": "finished",
        "class": {
          "system": "http://terminology.hl7.org/CodeSystem/v3-ActCode",
          "code": "AMB",
          "display": "ambulatory"
        },
        "subject": {
          "reference": "Patient/ANTITHROMBOTIC-P3-2025Q4"
        },
        "period": {
          "start": "2025-10-28T10:00:00+08:00",
          "end": "2025-10-28T10:30:00+08:00"
        }
      },
      "request": {
        "method": "PUT",
        "url": "Encounter/ANTITHROMBOTIC-E6-2025Q4"
      }
    },
    {
      "fullUrl": "urn:uuid:medication-6",
      "resource": {
        "resourceType": "MedicationRequest",
        "id": "ANTITHROMBOTIC-M6-2025Q4",
        "status": "completed",
        "intent": "order",
        "medicationCodeableConcept": {
          "coding": [
            {
              "system": "http://www.whocc.no/atc",
              "code": "B01AF01",
              "display": "Rivaroxaban"
            }
          ],
          "text": "拜瑞妥 Rivaroxaban 10mg"
        },
        "subject": {
          "reference": "Patient/ANTITHROMBOTIC-P3-2025Q4"
        },
        "encounter": {
          "reference": "Encounter/ANTITHROMBOTIC-E6-2025Q4"
        },
        "authoredOn": "2025-10-28T10:00:00+08:00",
        "dosageInstruction": [
          {
            "timing": {
              "repeat": {
                "boundsPeriod": {
                  "start": "2025-10-28",
                  "end": "2025-11-24"
                },
                "frequency": 1,
                "period": 1,
                "periodUnit": "d"
              }
            },
            "doseAndRate": [
              {
                "doseQuantity": {
                  "value": 1,
                  "unit": "tablet"
                }
              }
            ]
          }
        ],
        "dispenseRequest": {
          "validityPeriod": {
            "start": "2025-10-28",
            "end": "2025-11-24"
          },
          "quantity": {
            "value": 28,
            "unit": "tablet"
          },
          "expectedSupplyDuration": {
            "value": 28,
            "unit": "days",
            "system": "http://unitsofmeasure.org",
            "code": "d"
          }
        }
      },
      "request": {
        "method": "PUT",
        "url": "MedicationRequest/ANTITHROMBOTIC-M6-2025Q4"
      }
    },
    {
      "fullUrl": "urn:uuid:encounter-7",
      "resource": {
        "resourceType": "Encounter",
        "id": "ANTITHROMBOTIC-E7-2025Q4",
        "status": "finished",
        "class": {
          "system": "http://terminology.hl7.org/CodeSystem/v3-ActCode",
          "code": "AMB",
          "display": "ambulatory"
        },
        "subject": {
          "reference": "Patient/ANTITHROMBOTIC-P4-2025Q4"
        },
        "period": {
          "start": "2025-10-01T14:00:00+08:00",
          "end": "2025-10-01T14:30:00+08:00"
        }
      },
      "request": {
        "method": "PUT",
        "url": "Encounter/ANTITHROMBOTIC-E7-2025Q4"
      }
    },
    {
      "fullUrl": "urn:uuid:medication-7",
      "resource": {
        "resourceType": "MedicationRequest",
        "id": "ANTITHROMBOTIC-M7-2025Q4",
        "status": "completed",
        "intent": "order",
        "medicationCodeableConcept": {
          "coding": [
            {
              "system": "http://www.whocc.no/atc",
              "code": "B01AE03",
              "display": "Dabigatran"
            }
          ],
          "text": "普栓達 Dabigatran 110mg"
        },
        "subject": {
          "reference": "Patient/ANTITHROMBOTIC-P4-2025Q4"
        },
        "encounter": {
          "reference": "Encounter/ANTITHROMBOTIC-E7-2025Q4"
        },
        "authoredOn": "2025-10-01T14:00:00+08:00",
        "dosageInstruction": [
          {
            "timing": {
              "repeat": {
                "boundsPeriod": {
                  "start": "2025-10-01",
                  "end": "2025-10-28"
                },
                "frequency": 2,
                "period": 1,
                "periodUnit": "d"
              }
            },
            "doseAndRate": [
              {
                "doseQuantity": {
                  "value": 1,
                  "unit": "capsule"
                }
              }
            ]
          }
        ],
        "dispenseRequest": {
          "validityPeriod": {
            "start": "2025-10-01",
            "end": "2025-10-28"
          },
          "quantity": {
            "value": 56,
            "unit": "capsule"
          },
          "expectedSupplyDuration": {
            "value": 28,
            "unit": "days",
            "system": "http://unitsofmeasure.org",
            "code": "d"
          }
        }
      },
      "request": {
        "method": "PUT",
        "url": "MedicationRequest/ANTITHROMBOTIC-M7-2025Q4"
      }
    },
    {
      "fullUrl": "urn:uuid:encounter-8",
      "resource": {
        "resourceType": "Encounter",
        "id": "ANTITHROMBOTIC-E8-2025Q4",
        "status": "finished",
        "class": {
          "system": "http://terminology.hl7.org/CodeSystem/v3-ActCode",
          "code": "AMB",
          "display": "ambulatory"
        },
        "subject": {
          "reference": "Patient/ANTITHROMBOTIC-P4-2025Q4"
        },
        "period": {
          "start": "2025-10-29T15:00:00+08:00",
          "end": "2025-10-29T15:30:00+08:00"
        }
      },
      "request": {
        "method": "PUT",
        "url": "Encounter/ANTITHROMBOTIC-E8-2025Q4"
      }
    },
    {
      "fullUrl": "urn:uuid:medication-8",
      "resource": {
        "resourceType": "MedicationRequest",
        "id": "ANTITHROMBOTIC-M8-2025Q4",
        "status": "completed",
        "intent": "order",
        "medicationCodeableConcept": {
          "coding": [
            {
              "system": "http://www.whocc.no/atc",
              "code": "B01AE03",
              "display": "Dabigatran"
            }
          ],
          "text": "普栓達 Dabigatran 110mg"
        },
        "subject": {
          "reference": "Patient/ANTITHROMBOTIC-P4-2025Q4"
        },
        "encounter": {
          "reference": "Encounter/ANTITHROMBOTIC-E8-2025Q4"
        },
        "authoredOn": "2025-10-29T15:00:00+08:00",
        "dosageInstruction": [
          {
            "timing": {
              "repeat": {
                "boundsPeriod": {
                  "start": "2025-10-29",
                  "end": "2025-11-25"
                },
                "frequency": 2,
                "period": 1,
                "periodUnit": "d"
              }
            },
            "doseAndRate": [
              {
                "doseQuantity": {
                  "value": 1,
                  "unit": "capsule"
                }
              }
            ]
          }
        ],
        "dispenseRequest": {
          "validityPeriod": {
            "start": "2025-10-29",
            "end": "2025-11-25"
          },
          "quantity": {
            "value": 56,
            "unit": "capsule"
          },
          "expectedSupplyDuration": {
            "value": 28,
            "unit": "days",
            "system": "http://unitsofmeasure.org",
            "code": "d"
          }
        }
      },
      "request": {
        "method": "PUT",
        "url": "MedicationRequest/ANTITHROMBOTIC-M8-2025Q4"
      }
    },
    {
      "fullUrl": "urn:uuid:patient-5",
      "resource": {
        "resourceType": "Patient",
        "id": "ANTITHROMBOTIC-P5-2025Q4",
        "gender": "female",
        "birthDate": "1968-09-22",
        "name": [
          {
            "text": "黃美玲",
            "family": "Huang",
            "given": ["Meiling"]
          }
        ]
      },
      "request": {
        "method": "PUT",
        "url": "Patient/ANTITHROMBOTIC-P5-2025Q4"
      }
    },
    {
      "fullUrl": "urn:uuid:encounter-9",
      "resource": {
        "resourceType": "Encounter",
        "id": "ANTITHROMBOTIC-E9-2025Q4",
        "status": "finished",
        "class": {
          "system": "http://terminology.hl7.org/CodeSystem/v3-ActCode",
          "code": "AMB",
          "display": "ambulatory"
        },
        "subject": {
          "reference": "Patient/ANTITHROMBOTIC-P5-2025Q4"
        },
        "period": {
          "start": "2025-10-08T09:00:00+08:00",
          "end": "2025-10-08T09:30:00+08:00"
        }
      },
      "request": {
        "method": "PUT",
        "url": "Encounter/ANTITHROMBOTIC-E9-2025Q4"
      }
    },
    {
      "fullUrl": "urn:uuid:medication-9",
      "resource": {
        "resourceType": "MedicationRequest",
        "id": "ANTITHROMBOTIC-M9-2025Q4",
        "status": "completed",
        "intent": "order",
        "medicationCodeableConcept": {
          "coding": [
            {
              "system": "http://www.whocc.no/atc",
              "code": "B01AC06",
              "display": "Aspirin"
            }
          ],
          "text": "阿斯匹靈 Aspirin 100mg"
        },
        "subject": {
          "reference": "Patient/ANTITHROMBOTIC-P5-2025Q4"
        },
        "encounter": {
          "reference": "Encounter/ANTITHROMBOTIC-E9-2025Q4"
        },
        "authoredOn": "2025-10-08T09:00:00+08:00",
        "dosageInstruction": [
          {
            "timing": {
              "repeat": {
                "boundsPeriod": {
                  "start": "2025-10-08",
                  "end": "2025-11-04"
                },
                "frequency": 1,
                "period": 1,
                "periodUnit": "d"
              }
            },
            "doseAndRate": [
              {
                "doseQuantity": {
                  "value": 1,
                  "unit": "tablet"
                }
              }
            ]
          }
        ],
        "dispenseRequest": {
          "validityPeriod": {
            "start": "2025-10-08",
            "end": "2025-11-04"
          },
          "quantity": {
            "value": 28,
            "unit": "tablet"
          },
          "expectedSupplyDuration": {
            "value": 28,
            "unit": "days",
            "system": "http://unitsofmeasure.org",
            "code": "d"
          }
        }
      },
      "request": {
        "method": "PUT",
        "url": "MedicationRequest/ANTITHROMBOTIC-M9-2025Q4"
      }
    },
    {
      "fullUrl": "urn:uuid:encounter-10",
      "resource": {
        "resourceType": "Encounter",
        "id": "ANTITHROMBOTIC-E10-2025Q4",
        "status": "finished",
        "class": {
          "system": "http://terminology.hl7.org/CodeSystem/v3-ActCode",
          "code": "AMB",
          "display": "ambulatory"
        },
        "subject": {
          "reference": "Patient/ANTITHROMBOTIC-P5-2025Q4"
        },
        "period": {
          "start": "2025-10-22T10:00:00+08:00",
          "end": "2025-10-22T10:30:00+08:00"
        }
      },
      "request": {
        "method": "PUT",
        "url": "Encounter/ANTITHROMBOTIC-E10-2025Q4"
      }
    },
    {
      "fullUrl": "urn:uuid:medication-10",
      "resource": {
        "resourceType": "MedicationRequest",
        "id": "ANTITHROMBOTIC-M10-2025Q4",
        "status": "completed",
        "intent": "order",
        "medicationCodeableConcept": {
          "coding": [
            {
              "system": "http://www.whocc.no/atc",
              "code": "B01AC06",
              "display": "Aspirin"
            }
          ],
          "text": "阿斯匹靈 Aspirin 100mg"
        },
        "subject": {
          "reference": "Patient/ANTITHROMBOTIC-P5-2025Q4"
        },
        "encounter": {
          "reference": "Encounter/ANTITHROMBOTIC-E10-2025Q4"
        },
        "authoredOn": "2025-10-22T10:00:00+08:00",
        "dosageInstruction": [
          {
            "timing": {
              "repeat": {
                "boundsPeriod": {
                  "start": "2025-10-22",
                  "end": "2025-11-18"
                },
                "frequency": 1,
                "period": 1,
                "periodUnit": "d"
              }
            },
            "doseAndRate": [
              {
                "doseQuantity": {
                  "value": 1,
                  "unit": "tablet"
                }
              }
            ]
          }
        ],
        "dispenseRequest": {
          "validityPeriod": {
            "start": "2025-10-22",
            "end": "2025-11-18"
          },
          "quantity": {
            "value": 28,
            "unit": "tablet"
          },
          "expectedSupplyDuration": {
            "value": 28,
            "unit": "days",
            "system": "http://unitsofmeasure.org",
            "code": "d"
          }
        }
      },
      "request": {
        "method": "PUT",
        "url": "MedicationRequest/ANTITHROMBOTIC-M10-2025Q4"
      }
    }
  ]
}
