{
  "resourceType": "Bundle",
  "type": "transaction",
  "entry": [
    {
      "request": {
        "method": "PUT",
        "url": "Organization/org-hospital-cross-sed-a"
      },
      "resource": {
        "resourceType": "Organization",
        "id": "org-hospital-cross-sed-a",
        "name": "壬醫院_跨院鎮靜劑",
        "type": [
          {
            "coding": [
              {
                "system": "http://terminology.hl7.org/CodeSystem/organization-type",
                "code": "prov",
                "display": "Healthcare Provider"
              }
            ]
          }
        ]
      }
    },
    {
      "request": {
        "method": "PUT",
        "url": "Organization/org-hospital-cross-sed-b"
      },
      "resource": {
        "resourceType": "Organization",
        "id": "org-hospital-cross-sed-b",
        "name": "癸醫院_跨院鎮靜劑",
        "type": [
          {
            "coding": [
              {
                "system": "http://terminology.hl7.org/CodeSystem/organization-type",
                "code": "prov",
                "display": "Healthcare Provider"
              }
            ]
          }
        ]
      }
    },
    {
      "request": {
        "method": "PUT",
        "url": "Patient/patient-sedative-cross-001"
      },
      "resource": {
        "resourceType": "Patient",
        "id": "patient-sedative-cross-001",
        "identifier": [
          {
            "system": "http://www.moi.gov.tw",
            "value": "SEDATIVE-CROSS-001"
          }
        ],
        "name": [
          {
            "text": "跨院鎮靜劑001",
            "family": "跨院",
            "given": ["鎮靜001"]
          }
        ],
        "gender": "female",
        "birthDate": "1970-05-15"
      }
    },
    {
      "request": {
        "method": "PUT",
        "url": "Patient/patient-sedative-cross-002"
      },
      "resource": {
        "resourceType": "Patient",
        "id": "patient-sedative-cross-002",
        "identifier": [
          {
            "system": "http://www.moi.gov.tw",
            "value": "SEDATIVE-CROSS-002"
          }
        ],
        "name": [
          {
            "text": "跨院鎮靜劑002",
            "family": "跨院",
            "given": ["鎮靜002"]
          }
        ],
        "gender": "male",
        "birthDate": "1963-09-28"
      }
    },
    {
      "request": {
        "method": "PUT",
        "url": "Patient/patient-sedative-cross-003"
      },
      "resource": {
        "resourceType": "Patient",
        "id": "patient-sedative-cross-003",
        "identifier": [
          {
            "system": "http://www.moi.gov.tw",
            "value": "SEDATIVE-CROSS-003"
          }
        ],
        "name": [
          {
            "text": "跨院鎮靜劑003",
            "family": "跨院",
            "given": ["鎮靜003"]
          }
        ],
        "gender": "female",
        "birthDate": "1955-12-03"
      }
    },
    {
      "request": {
        "method": "PUT",
        "url": "Encounter/encounter-sedative-cross-001-hosp-a"
      },
      "resource": {
        "resourceType": "Encounter",
        "id": "encounter-sedative-cross-001-hosp-a",
        "status": "finished",
        "class": {
          "system": "http://terminology.hl7.org/CodeSystem/v3-ActCode",
          "code": "AMB",
          "display": "ambulatory"
        },
        "subject": {
          "reference": "Patient/patient-sedative-cross-001"
        },
        "serviceProvider": {
          "reference": "Organization/org-hospital-cross-sed-a"
        },
        "period": {
          "start": "2024-04-10T09:00:00+08:00",
          "end": "2024-04-10T10:00:00+08:00"
        }
      }
    },
    {
      "request": {
        "method": "PUT",
        "url": "Encounter/encounter-sedative-cross-001-hosp-b"
      },
      "resource": {
        "resourceType": "Encounter",
        "id": "encounter-sedative-cross-001-hosp-b",
        "status": "finished",
        "class": {
          "system": "http://terminology.hl7.org/CodeSystem/v3-ActCode",
          "code": "AMB",
          "display": "ambulatory"
        },
        "subject": {
          "reference": "Patient/patient-sedative-cross-001"
        },
        "serviceProvider": {
          "reference": "Organization/org-hospital-cross-sed-b"
        },
        "period": {
          "start": "2024-04-18T14:00:00+08:00",
          "end": "2024-04-18T15:00:00+08:00"
        }
      }
    },
    {
      "request": {
        "method": "PUT",
        "url": "Encounter/encounter-sedative-cross-002-hosp-a"
      },
      "resource": {
        "resourceType": "Encounter",
        "id": "encounter-sedative-cross-002-hosp-a",
        "status": "finished",
        "class": {
          "system": "http://terminology.hl7.org/CodeSystem/v3-ActCode",
          "code": "AMB",
          "display": "ambulatory"
        },
        "subject": {
          "reference": "Patient/patient-sedative-cross-002"
        },
        "serviceProvider": {
          "reference": "Organization/org-hospital-cross-sed-a"
        },
        "period": {
          "start": "2024-05-05T10:30:00+08:00",
          "end": "2024-05-05T11:30:00+08:00"
        }
      }
    },
    {
      "request": {
        "method": "PUT",
        "url": "Encounter/encounter-sedative-cross-002-hosp-b"
      },
      "resource": {
        "resourceType": "Encounter",
        "id": "encounter-sedative-cross-002-hosp-b",
        "status": "finished",
        "class": {
          "system": "http://terminology.hl7.org/CodeSystem/v3-ActCode",
          "code": "AMB",
          "display": "ambulatory"
        },
        "subject": {
          "reference": "Patient/patient-sedative-cross-002"
        },
        "serviceProvider": {
          "reference": "Organization/org-hospital-cross-sed-b"
        },
        "period": {
          "start": "2024-05-12T15:00:00+08:00",
          "end": "2024-05-12T16:00:00+08:00"
        }
      }
    },
    {
      "request": {
        "method": "PUT",
        "url": "Encounter/encounter-sedative-cross-003-hosp-a"
      },
      "resource": {
        "resourceType": "Encounter",
        "id": "encounter-sedative-cross-003-hosp-a",
        "status": "finished",
        "class": {
          "system": "http://terminology.hl7.org/CodeSystem/v3-ActCode",
          "code": "AMB",
          "display": "ambulatory"
        },
        "subject": {
          "reference": "Patient/patient-sedative-cross-003"
        },
        "serviceProvider": {
          "reference": "Organization/org-hospital-cross-sed-a"
        },
        "period": {
          "start": "2024-06-01T09:00:00+08:00",
          "end": "2024-06-01T10:00:00+08:00"
        }
      }
    },
    {
      "request": {
        "method": "PUT",
        "url": "Encounter/encounter-sedative-cross-003-hosp-b"
      },
      "resource": {
        "resourceType": "Encounter",
        "id": "encounter-sedative-cross-003-hosp-b",
        "status": "finished",
        "class": {
          "system": "http://terminology.hl7.org/CodeSystem/v3-ActCode",
          "code": "AMB",
          "display": "ambulatory"
        },
        "subject": {
          "reference": "Patient/patient-sedative-cross-003"
        },
        "serviceProvider": {
          "reference": "Organization/org-hospital-cross-sed-b"
        },
        "period": {
          "start": "2024-06-08T13:30:00+08:00",
          "end": "2024-06-08T14:30:00+08:00"
        }
      }
    },
    {
      "request": {
        "method": "PUT",
        "url": "MedicationRequest/medreq-sedative-cross-001-a"
      },
      "resource": {
        "resourceType": "MedicationRequest",
        "id": "medreq-sedative-cross-001-a",
        "status": "completed",
        "intent": "order",
        "medicationCodeableConcept": {
          "coding": [
            {
              "system": "http://www.whocc.no/atc",
              "code": "N05CF01",
              "display": "Zopiclone"
            }
          ],
          "text": "Zopiclone 7.5mg"
        },
        "subject": {
          "reference": "Patient/patient-sedative-cross-001"
        },
        "encounter": {
          "reference": "Encounter/encounter-sedative-cross-001-hosp-a"
        },
        "authoredOn": "2024-04-10T09:30:00+08:00",
        "dispenseRequest": {
          "validityPeriod": {
            "start": "2024-04-10",
            "end": "2024-04-24"
          },
          "quantity": {
            "value": 28,
            "unit": "tablet"
          }
        }
      }
    },
    {
      "request": {
        "method": "PUT",
        "url": "MedicationRequest/medreq-sedative-cross-001-b"
      },
      "resource": {
        "resourceType": "MedicationRequest",
        "id": "medreq-sedative-cross-001-b",
        "status": "completed",
        "intent": "order",
        "medicationCodeableConcept": {
          "coding": [
            {
              "system": "http://www.whocc.no/atc",
              "code": "N05CF02",
              "display": "Zolpidem"
            }
          ],
          "text": "Zolpidem 10mg"
        },
        "subject": {
          "reference": "Patient/patient-sedative-cross-001"
        },
        "encounter": {
          "reference": "Encounter/encounter-sedative-cross-001-hosp-b"
        },
        "authoredOn": "2024-04-18T14:30:00+08:00",
        "dispenseRequest": {
          "validityPeriod": {
            "start": "2024-04-18",
            "end": "2024-05-02"
          },
          "quantity": {
            "value": 28,
            "unit": "tablet"
          }
        }
      }
    },
    {
      "request": {
        "method": "PUT",
        "url": "MedicationRequest/medreq-sedative-cross-002-a"
      },
      "resource": {
        "resourceType": "MedicationRequest",
        "id": "medreq-sedative-cross-002-a",
        "status": "completed",
        "intent": "order",
        "medicationCodeableConcept": {
          "coding": [
            {
              "system": "http://www.whocc.no/atc",
              "code": "N05CD05",
              "display": "Triazolam"
            }
          ],
          "text": "Triazolam 0.25mg"
        },
        "subject": {
          "reference": "Patient/patient-sedative-cross-002"
        },
        "encounter": {
          "reference": "Encounter/encounter-sedative-cross-002-hosp-a"
        },
        "authoredOn": "2024-05-05T11:00:00+08:00",
        "dispenseRequest": {
          "validityPeriod": {
            "start": "2024-05-05",
            "end": "2024-05-19"
          },
          "quantity": {
            "value": 28,
            "unit": "tablet"
          }
        }
      }
    },
    {
      "request": {
        "method": "PUT",
        "url": "MedicationRequest/medreq-sedative-cross-002-b"
      },
      "resource": {
        "resourceType": "MedicationRequest",
        "id": "medreq-sedative-cross-002-b",
        "status": "completed",
        "intent": "order",
        "medicationCodeableConcept": {
          "coding": [
            {
              "system": "http://www.whocc.no/atc",
              "code": "N05CD01",
              "display": "Flurazepam"
            }
          ],
          "text": "Flurazepam 30mg"
        },
        "subject": {
          "reference": "Patient/patient-sedative-cross-002"
        },
        "encounter": {
          "reference": "Encounter/encounter-sedative-cross-002-hosp-b"
        },
        "authoredOn": "2024-05-12T15:30:00+08:00",
        "dispenseRequest": {
          "validityPeriod": {
            "start": "2024-05-12",
            "end": "2024-05-26"
          },
          "quantity": {
            "value": 28,
            "unit": "tablet"
          }
        }
      }
    },
    {
      "request": {
        "method": "PUT",
        "url": "MedicationRequest/medreq-sedative-cross-003-a"
      },
      "resource": {
        "resourceType": "MedicationRequest",
        "id": "medreq-sedative-cross-003-a",
        "status": "completed",
        "intent": "order",
        "medicationCodeableConcept": {
          "coding": [
            {
              "system": "http://www.whocc.no/atc",
              "code": "N05BA08",
              "display": "Bromazepam"
            }
          ],
          "text": "Bromazepam 3mg"
        },
        "subject": {
          "reference": "Patient/patient-sedative-cross-003"
        },
        "encounter": {
          "reference": "Encounter/encounter-sedative-cross-003-hosp-a"
        },
        "authoredOn": "2024-06-01T09:30:00+08:00",
        "dispenseRequest": {
          "validityPeriod": {
            "start": "2024-06-01",
            "end": "2024-06-15"
          },
          "quantity": {
            "value": 28,
            "unit": "tablet"
          }
        }
      }
    },
    {
      "request": {
        "method": "PUT",
        "url": "MedicationRequest/medreq-sedative-cross-003-b"
      },
      "resource": {
        "resourceType": "MedicationRequest",
        "id": "medreq-sedative-cross-003-b",
        "status": "completed",
        "intent": "order",
        "medicationCodeableConcept": {
          "coding": [
            {
              "system": "http://www.whocc.no/atc",
              "code": "N05BA09",
              "display": "Clobazam"
            }
          ],
          "text": "Clobazam 10mg"
        },
        "subject": {
          "reference": "Patient/patient-sedative-cross-003"
        },
        "encounter": {
          "reference": "Encounter/encounter-sedative-cross-003-hosp-b"
        },
        "authoredOn": "2024-06-08T14:00:00+08:00",
        "dispenseRequest": {
          "validityPeriod": {
            "start": "2024-06-08",
            "end": "2024-06-22"
          },
          "quantity": {
            "value": 28,
            "unit": "tablet"
          }
        }
      }
    },
    {
      "request": {
        "method": "PUT",
        "url": "Patient/patient-sedative-cross-004"
      },
      "resource": {
        "resourceType": "Patient",
        "id": "patient-sedative-cross-004",
        "identifier": [
          {
            "system": "http://www.moi.gov.tw",
            "value": "SEDATIVE-CROSS-004"
          }
        ],
        "name": [
          {
            "text": "跨院鎮靜劑004",
            "family": "跨院",
            "given": ["鎮靜004"]
          }
        ],
        "gender": "male",
        "birthDate": "1968-03-20"
      }
    },
    {
      "request": {
        "method": "PUT",
        "url": "Patient/patient-sedative-cross-005"
      },
      "resource": {
        "resourceType": "Patient",
        "id": "patient-sedative-cross-005",
        "identifier": [
          {
            "system": "http://www.moi.gov.tw",
            "value": "SEDATIVE-CROSS-005"
          }
        ],
        "name": [
          {
            "text": "跨院鎮靜劑005",
            "family": "跨院",
            "given": ["鎮靜005"]
          }
        ],
        "gender": "female",
        "birthDate": "1975-11-08"
      }
    },
    {
      "request": {
        "method": "PUT",
        "url": "Patient/patient-sedative-cross-006"
      },
      "resource": {
        "resourceType": "Patient",
        "id": "patient-sedative-cross-006",
        "identifier": [
          {
            "system": "http://www.moi.gov.tw",
            "value": "SEDATIVE-CROSS-006"
          }
        ],
        "name": [
          {
            "text": "跨院鎮靜劑006",
            "family": "跨院",
            "given": ["鎮靜006"]
          }
        ],
        "gender": "male",
        "birthDate": "1960-07-14"
      }
    },
    {
      "request": {
        "method": "PUT",
        "url": "Encounter/encounter-sedative-cross-004-hosp-a"
      },
      "resource": {
        "resourceType": "Encounter",
        "id": "encounter-sedative-cross-004-hosp-a",
        "status": "finished",
        "class": {
          "system": "http://terminology.hl7.org/CodeSystem/v3-ActCode",
          "code": "AMB",
          "display": "ambulatory"
        },
        "subject": {
          "reference": "Patient/patient-sedative-cross-004"
        },
        "serviceProvider": {
          "reference": "Organization/org-hospital-cross-sed-a"
        },
        "period": {
          "start": "2024-07-15T10:00:00+08:00",
          "end": "2024-07-15T11:00:00+08:00"
        }
      }
    },
    {
      "request": {
        "method": "PUT",
        "url": "Encounter/encounter-sedative-cross-004-hosp-b"
      },
      "resource": {
        "resourceType": "Encounter",
        "id": "encounter-sedative-cross-004-hosp-b",
        "status": "finished",
        "class": {
          "system": "http://terminology.hl7.org/CodeSystem/v3-ActCode",
          "code": "AMB",
          "display": "ambulatory"
        },
        "subject": {
          "reference": "Patient/patient-sedative-cross-004"
        },
        "serviceProvider": {
          "reference": "Organization/org-hospital-cross-sed-b"
        },
        "period": {
          "start": "2024-07-22T14:30:00+08:00",
          "end": "2024-07-22T15:30:00+08:00"
        }
      }
    },
    {
      "request": {
        "method": "PUT",
        "url": "Encounter/encounter-sedative-cross-005-hosp-a"
      },
      "resource": {
        "resourceType": "Encounter",
        "id": "encounter-sedative-cross-005-hosp-a",
        "status": "finished",
        "class": {
          "system": "http://terminology.hl7.org/CodeSystem/v3-ActCode",
          "code": "AMB",
          "display": "ambulatory"
        },
        "subject": {
          "reference": "Patient/patient-sedative-cross-005"
        },
        "serviceProvider": {
          "reference": "Organization/org-hospital-cross-sed-a"
        },
        "period": {
          "start": "2024-08-05T09:30:00+08:00",
          "end": "2024-08-05T10:30:00+08:00"
        }
      }
    },
    {
      "request": {
        "method": "PUT",
        "url": "Encounter/encounter-sedative-cross-005-hosp-b"
      },
      "resource": {
        "resourceType": "Encounter",
        "id": "encounter-sedative-cross-005-hosp-b",
        "status": "finished",
        "class": {
          "system": "http://terminology.hl7.org/CodeSystem/v3-ActCode",
          "code": "AMB",
          "display": "ambulatory"
        },
        "subject": {
          "reference": "Patient/patient-sedative-cross-005"
        },
        "serviceProvider": {
          "reference": "Organization/org-hospital-cross-sed-b"
        },
        "period": {
          "start": "2024-08-12T15:00:00+08:00",
          "end": "2024-08-12T16:00:00+08:00"
        }
      }
    },
    {
      "request": {
        "method": "PUT",
        "url": "Encounter/encounter-sedative-cross-006-hosp-a"
      },
      "resource": {
        "resourceType": "Encounter",
        "id": "encounter-sedative-cross-006-hosp-a",
        "status": "finished",
        "class": {
          "system": "http://terminology.hl7.org/CodeSystem/v3-ActCode",
          "code": "AMB",
          "display": "ambulatory"
        },
        "subject": {
          "reference": "Patient/patient-sedative-cross-006"
        },
        "serviceProvider": {
          "reference": "Organization/org-hospital-cross-sed-a"
        },
        "period": {
          "start": "2024-09-10T11:00:00+08:00",
          "end": "2024-09-10T12:00:00+08:00"
        }
      }
    },
    {
      "request": {
        "method": "PUT",
        "url": "Encounter/encounter-sedative-cross-006-hosp-b"
      },
      "resource": {
        "resourceType": "Encounter",
        "id": "encounter-sedative-cross-006-hosp-b",
        "status": "finished",
        "class": {
          "system": "http://terminology.hl7.org/CodeSystem/v3-ActCode",
          "code": "AMB",
          "display": "ambulatory"
        },
        "subject": {
          "reference": "Patient/patient-sedative-cross-006"
        },
        "serviceProvider": {
          "reference": "Organization/org-hospital-cross-sed-b"
        },
        "period": {
          "start": "2024-09-17T13:00:00+08:00",
          "end": "2024-09-17T14:00:00+08:00"
        }
      }
    },
    {
      "request": {
        "method": "PUT",
        "url": "MedicationRequest/medreq-sedative-cross-004-a"
      },
      "resource": {
        "resourceType": "MedicationRequest",
        "id": "medreq-sedative-cross-004-a",
        "status": "completed",
        "intent": "order",
        "medicationCodeableConcept": {
          "coding": [
            {
              "system": "http://www.whocc.no/atc",
              "code": "N05BA02",
              "display": "Chlordiazepoxide"
            }
          ],
          "text": "Chlordiazepoxide 10mg"
        },
        "subject": {
          "reference": "Patient/patient-sedative-cross-004"
        },
        "encounter": {
          "reference": "Encounter/encounter-sedative-cross-004-hosp-a"
        },
        "authoredOn": "2024-07-15T10:30:00+08:00",
        "dispenseRequest": {
          "validityPeriod": {
            "start": "2024-07-15",
            "end": "2024-07-29"
          },
          "quantity": {
            "value": 28,
            "unit": "tablet"
          }
        }
      }
    },
    {
      "request": {
        "method": "PUT",
        "url": "MedicationRequest/medreq-sedative-cross-004-b"
      },
      "resource": {
        "resourceType": "MedicationRequest",
        "id": "medreq-sedative-cross-004-b",
        "status": "completed",
        "intent": "order",
        "medicationCodeableConcept": {
          "coding": [
            {
              "system": "http://www.whocc.no/atc",
              "code": "N05CD03",
              "display": "Flunitrazepam"
            }
          ],
          "text": "Flunitrazepam 2mg"
        },
        "subject": {
          "reference": "Patient/patient-sedative-cross-004"
        },
        "encounter": {
          "reference": "Encounter/encounter-sedative-cross-004-hosp-b"
        },
        "authoredOn": "2024-07-22T15:00:00+08:00",
        "dispenseRequest": {
          "validityPeriod": {
            "start": "2024-07-22",
            "end": "2024-08-05"
          },
          "quantity": {
            "value": 28,
            "unit": "tablet"
          }
        }
      }
    },
    {
      "request": {
        "method": "PUT",
        "url": "MedicationRequest/medreq-sedative-cross-005-a"
      },
      "resource": {
        "resourceType": "MedicationRequest",
        "id": "medreq-sedative-cross-005-a",
        "status": "completed",
        "intent": "order",
        "medicationCodeableConcept": {
          "coding": [
            {
              "system": "http://www.whocc.no/atc",
              "code": "N05BA11",
              "display": "Prazepam"
            }
          ],
          "text": "Prazepam 10mg"
        },
        "subject": {
          "reference": "Patient/patient-sedative-cross-005"
        },
        "encounter": {
          "reference": "Encounter/encounter-sedative-cross-005-hosp-a"
        },
        "authoredOn": "2024-08-05T10:00:00+08:00",
        "dispenseRequest": {
          "validityPeriod": {
            "start": "2024-08-05",
            "end": "2024-08-19"
          },
          "quantity": {
            "value": 28,
            "unit": "tablet"
          }
        }
      }
    },
    {
      "request": {
        "method": "PUT",
        "url": "MedicationRequest/medreq-sedative-cross-005-b"
      },
      "resource": {
        "resourceType": "MedicationRequest",
        "id": "medreq-sedative-cross-005-b",
        "status": "completed",
        "intent": "order",
        "medicationCodeableConcept": {
          "coding": [
            {
              "system": "http://www.whocc.no/atc",
              "code": "N05CD07",
              "display": "Temazepam"
            }
          ],
          "text": "Temazepam 20mg"
        },
        "subject": {
          "reference": "Patient/patient-sedative-cross-005"
        },
        "encounter": {
          "reference": "Encounter/encounter-sedative-cross-005-hosp-b"
        },
        "authoredOn": "2024-08-12T15:30:00+08:00",
        "dispenseRequest": {
          "validityPeriod": {
            "start": "2024-08-12",
            "end": "2024-08-26"
          },
          "quantity": {
            "value": 28,
            "unit": "tablet"
          }
        }
      }
    },
    {
      "request": {
        "method": "PUT",
        "url": "MedicationRequest/medreq-sedative-cross-006-a"
      },
      "resource": {
        "resourceType": "MedicationRequest",
        "id": "medreq-sedative-cross-006-a",
        "status": "completed",
        "intent": "order",
        "medicationCodeableConcept": {
          "coding": [
            {
              "system": "http://www.whocc.no/atc",
              "code": "N05BA05",
              "display": "Medazepam"
            }
          ],
          "text": "Medazepam 10mg"
        },
        "subject": {
          "reference": "Patient/patient-sedative-cross-006"
        },
        "encounter": {
          "reference": "Encounter/encounter-sedative-cross-006-hosp-a"
        },
        "authoredOn": "2024-09-10T11:30:00+08:00",
        "dispenseRequest": {
          "validityPeriod": {
            "start": "2024-09-10",
            "end": "2024-09-24"
          },
          "quantity": {
            "value": 28,
            "unit": "tablet"
          }
        }
      }
    },
    {
      "request": {
        "method": "PUT",
        "url": "MedicationRequest/medreq-sedative-cross-006-b"
      },
      "resource": {
        "resourceType": "MedicationRequest",
        "id": "medreq-sedative-cross-006-b",
        "status": "completed",
        "intent": "order",
        "medicationCodeableConcept": {
          "coding": [
            {
              "system": "http://www.whocc.no/atc",
              "code": "N05CD04",
              "display": "Estazolam"
            }
          ],
          "text": "Estazolam 2mg"
        },
        "subject": {
          "reference": "Patient/patient-sedative-cross-006"
        },
        "encounter": {
          "reference": "Encounter/encounter-sedative-cross-006-hosp-b"
        },
        "authoredOn": "2024-09-17T13:30:00+08:00",
        "dispenseRequest": {
          "validityPeriod": {
            "start": "2024-09-17",
            "end": "2024-10-01"
          },
          "quantity": {
            "value": 28,
            "unit": "tablet"
          }
        }
      }
    }
  ]
}
