{
  "resourceType": "Bundle",
  "type": "transaction",
  "entry": [
    {
      "fullUrl": "urn:uuid:cs-patient-001",
      "resource": {
        "resourceType": "Patient",
        "id": "CS-001",
        "identifier": [
          {
            "system": "http://hospital.example.org/patients",
            "value": "CS-001"
          }
        ],
        "name": [
          {
            "use": "official",
            "family": "劉",
            "given": ["曉芬"]
          }
        ],
        "gender": "female",
        "birthDate": "1991-06-10"
      },
      "request": {
        "method": "PUT",
        "url": "Patient/CS-001"
      }
    },
    {
      "fullUrl": "urn:uuid:cs-encounter-001",
      "resource": {
        "resourceType": "Encounter",
        "id": "CS-ENC-001",
        "status": "finished",
        "class": {
          "system": "http://terminology.hl7.org/CodeSystem/v3-ActCode",
          "code": "IMP",
          "display": "inpatient encounter"
        },
        "subject": {
          "reference": "Patient/CS-001"
        },
        "period": {
          "start": "2025-10-01T08:00:00+08:00",
          "end": "2025-10-04T14:00:00+08:00"
        }
      },
      "request": {
        "method": "PUT",
        "url": "Encounter/CS-ENC-001"
      }
    },
    {
      "fullUrl": "urn:uuid:cs-procedure-001",
      "resource": {
        "resourceType": "Procedure",
        "id": "CS-PROC-001",
        "status": "completed",
        "category": {
          "coding": [
            {
              "system": "http://snomed.info/sct",
              "code": "387713003",
              "display": "Surgical procedure"
            }
          ]
        },
        "code": {
          "coding": [
            {
              "system": "https://twcore.mohw.gov.tw/ig/twcore/CodeSystem/nhi-procedure",
              "code": "81004C",
              "display": "剖腹產術"
            }
          ],
          "text": "剖腹產術"
        },
        "subject": {
          "reference": "Patient/CS-001"
        },
        "encounter": {
          "reference": "Encounter/CS-ENC-001"
        },
        "performedDateTime": "2025-10-02T10:30:00+08:00"
      },
      "request": {
        "method": "PUT",
        "url": "Procedure/CS-PROC-001"
      }
    },
    {
      "fullUrl": "urn:uuid:cs-patient-002",
      "resource": {
        "resourceType": "Patient",
        "id": "CS-002",
        "identifier": [
          {
            "system": "http://hospital.example.org/patients",
            "value": "CS-002"
          }
        ],
        "name": [
          {
            "use": "official",
            "family": "吳",
            "given": ["雅文"]
          }
        ],
        "gender": "female",
        "birthDate": "1990-08-22"
      },
      "request": {
        "method": "PUT",
        "url": "Patient/CS-002"
      }
    },
    {
      "fullUrl": "urn:uuid:cs-encounter-002",
      "resource": {
        "resourceType": "Encounter",
        "id": "CS-ENC-002",
        "status": "finished",
        "class": {
          "system": "http://terminology.hl7.org/CodeSystem/v3-ActCode",
          "code": "IMP",
          "display": "inpatient encounter"
        },
        "subject": {
          "reference": "Patient/CS-002"
        },
        "period": {
          "start": "2025-10-05T09:00:00+08:00",
          "end": "2025-10-08T15:00:00+08:00"
        }
      },
      "request": {
        "method": "PUT",
        "url": "Encounter/CS-ENC-002"
      }
    },
    {
      "fullUrl": "urn:uuid:cs-procedure-002",
      "resource": {
        "resourceType": "Procedure",
        "id": "CS-PROC-002",
        "status": "completed",
        "category": {
          "coding": [
            {
              "system": "http://snomed.info/sct",
              "code": "387713003",
              "display": "Surgical procedure"
            }
          ]
        },
        "code": {
          "coding": [
            {
              "system": "https://twcore.mohw.gov.tw/ig/twcore/CodeSystem/nhi-procedure",
              "code": "81028C",
              "display": "選擇性剖腹產"
            }
          ],
          "text": "選擇性剖腹產"
        },
        "subject": {
          "reference": "Patient/CS-002"
        },
        "encounter": {
          "reference": "Encounter/CS-ENC-002"
        },
        "performedDateTime": "2025-10-06T11:45:00+08:00"
      },
      "request": {
        "method": "PUT",
        "url": "Procedure/CS-PROC-002"
      }
    },
    {
      "fullUrl": "urn:uuid:cs-patient-003",
      "resource": {
        "resourceType": "Patient",
        "id": "CS-003",
        "identifier": [
          {
            "system": "http://hospital.example.org/patients",
            "value": "CS-003"
          }
        ],
        "name": [
          {
            "use": "official",
            "family": "鄭",
            "given": ["思涵"]
          }
        ],
        "gender": "female",
        "birthDate": "1992-04-18"
      },
      "request": {
        "method": "PUT",
        "url": "Patient/CS-003"
      }
    },
    {
      "fullUrl": "urn:uuid:cs-encounter-003",
      "resource": {
        "resourceType": "Encounter",
        "id": "CS-ENC-003",
        "status": "finished",
        "class": {
          "system": "http://terminology.hl7.org/CodeSystem/v3-ActCode",
          "code": "IMP",
          "display": "inpatient encounter"
        },
        "subject": {
          "reference": "Patient/CS-003"
        },
        "period": {
          "start": "2025-10-10T07:30:00+08:00",
          "end": "2025-10-13T16:00:00+08:00"
        }
      },
      "request": {
        "method": "PUT",
        "url": "Encounter/CS-ENC-003"
      }
    },
    {
      "fullUrl": "urn:uuid:cs-procedure-003",
      "resource": {
        "resourceType": "Procedure",
        "id": "CS-PROC-003",
        "status": "completed",
        "category": {
          "coding": [
            {
              "system": "http://snomed.info/sct",
              "code": "387713003",
              "display": "Surgical procedure"
            }
          ]
        },
        "code": {
          "coding": [
            {
              "system": "https://twcore.mohw.gov.tw/ig/twcore/CodeSystem/nhi-procedure",
              "code": "81029C",
              "display": "緊急剖腹產"
            }
          ],
          "text": "緊急剖腹產"
        },
        "subject": {
          "reference": "Patient/CS-003"
        },
        "encounter": {
          "reference": "Encounter/CS-ENC-003"
        },
        "performedDateTime": "2025-10-11T09:20:00+08:00"
      },
      "request": {
        "method": "PUT",
        "url": "Procedure/CS-PROC-003"
      }
    }
  ]
}
