{
  "resourceType": "Bundle",
  "type": "transaction",
  "entry": [
    {
      "fullUrl": "urn:uuid:ami-p1",
      "resource": {
        "resourceType": "Patient",
        "id": "TW20004",
        "gender": "male",
        "birthDate": "1960-05-20",
        "name": [{"text": "陳志明", "family": "Chen", "given": ["Zhiming"]}],
        "deceasedDateTime": "2025-10-18T15:30:00+08:00"
      },
      "request": {"method": "PUT", "url": "Patient/TW20004"}
    },
    {
      "fullUrl": "urn:uuid:ami-e1",
      "resource": {
        "resourceType": "Encounter",
        "id": "TW20004-AMI-E1",
        "status": "finished",
        "class": {"system": "http://terminology.hl7.org/CodeSystem/v3-ActCode", "code": "IMP"},
        "subject": {"reference": "Patient/TW20004"},
        "period": {"start": "2025-10-17T09:00:00+08:00", "end": "2025-10-18T15:30:00+08:00"},
        "hospitalization": {
          "dischargeDisposition": {
            "coding": [{"system": "http://terminology.hl7.org/CodeSystem/discharge-disposition", "code": "exp"}],
            "text": "死亡"
          }
        },
        "extension": [{"url": "http://www.nhi.gov.tw/fhir/StructureDefinition/tran-code", "valueString": "4"}]
      },
      "request": {"method": "PUT", "url": "Encounter/TW20004-AMI-E1"}
    },
    {
      "fullUrl": "urn:uuid:ami-c1",
      "resource": {
        "resourceType": "Condition",
        "id": "TW20004-AMI-C1",
        "clinicalStatus": {"coding": [{"system": "http://terminology.hl7.org/CodeSystem/condition-clinical", "code": "active"}]},
        "code": {
          "coding": [
            {"system": "http://hl7.org/fhir/sid/icd-10-cm", "code": "I21.0", "display": "ST elevation myocardial infarction"}
          ],
          "text": "急性心肌梗塞"
        },
        "subject": {"reference": "Patient/TW20004"},
        "encounter": {"reference": "Encounter/TW20004-AMI-E1"},
        "onsetDateTime": "2025-10-17T08:00:00+08:00"
      },
      "request": {"method": "PUT", "url": "Condition/TW20004-AMI-C1"}
    },
    {
      "fullUrl": "urn:uuid:ami-p2",
      "resource": {
        "resourceType": "Patient",
        "id": "TW20005",
        "gender": "female",
        "birthDate": "1965-08-15",
        "name": [{"text": "李雅婷", "family": "Li", "given": ["Yating"]}]
      },
      "request": {"method": "PUT", "url": "Patient/TW20005"}
    },
    {
      "fullUrl": "urn:uuid:ami-e2",
      "resource": {
        "resourceType": "Encounter",
        "id": "TW20005-AMI-E1",
        "status": "finished",
        "class": {"system": "http://terminology.hl7.org/CodeSystem/v3-ActCode", "code": "IMP"},
        "subject": {"reference": "Patient/TW20005"},
        "period": {"start": "2025-11-05T10:00:00+08:00", "end": "2025-11-20T12:00:00+08:00"},
        "hospitalization": {
          "dischargeDisposition": {
            "coding": [{"system": "http://terminology.hl7.org/CodeSystem/discharge-disposition", "code": "home"}],
            "text": "出院"
          }
        }
      },
      "request": {"method": "PUT", "url": "Encounter/TW20005-AMI-E1"}
    },
    {
      "fullUrl": "urn:uuid:ami-c2",
      "resource": {
        "resourceType": "Condition",
        "id": "TW20005-AMI-C1",
        "clinicalStatus": {"coding": [{"system": "http://terminology.hl7.org/CodeSystem/condition-clinical", "code": "active"}]},
        "code": {
          "coding": [
            {"system": "http://hl7.org/fhir/sid/icd-10-cm", "code": "I21.4", "display": "Non-ST elevation myocardial infarction"}
          ],
          "text": "急性心肌梗塞"
        },
        "subject": {"reference": "Patient/TW20005"},
        "encounter": {"reference": "Encounter/TW20005-AMI-E1"},
        "onsetDateTime": "2025-11-05T09:00:00+08:00"
      },
      "request": {"method": "PUT", "url": "Condition/TW20005-AMI-C1"}
    },
    {
      "fullUrl": "urn:uuid:ami-p3",
      "resource": {
        "resourceType": "Patient",
        "id": "TW20006",
        "gender": "male",
        "birthDate": "1958-12-30",
        "name": [{"text": "王建華", "family": "Wang", "given": ["Jianhua"]}]
      },
      "request": {"method": "PUT", "url": "Patient/TW20006"}
    },
    {
      "fullUrl": "urn:uuid:ami-e3",
      "resource": {
        "resourceType": "Encounter",
        "id": "TW20006-AMI-E1",
        "status": "finished",
        "class": {"system": "http://terminology.hl7.org/CodeSystem/v3-ActCode", "code": "IMP"},
        "subject": {"reference": "Patient/TW20006"},
        "period": {"start": "2025-11-22T14:00:00+08:00", "end": "2025-12-05T16:00:00+08:00"},
        "hospitalization": {
          "dischargeDisposition": {
            "coding": [{"system": "http://terminology.hl7.org/CodeSystem/discharge-disposition", "code": "home"}],
            "text": "出院"
          }
        }
      },
      "request": {"method": "PUT", "url": "Encounter/TW20006-AMI-E1"}
    },
    {
      "fullUrl": "urn:uuid:ami-c3",
      "resource": {
        "resourceType": "Condition",
        "id": "TW20006-AMI-C1",
        "clinicalStatus": {"coding": [{"system": "http://terminology.hl7.org/CodeSystem/condition-clinical", "code": "active"}]},
        "code": {
          "coding": [
            {"system": "http://hl7.org/fhir/sid/icd-10-cm", "code": "I21.9", "display": "Acute myocardial infarction, unspecified"}
          ],
          "text": "急性心肌梗塞"
        },
        "subject": {"reference": "Patient/TW20006"},
        "encounter": {"reference": "Encounter/TW20006-AMI-E1"},
        "onsetDateTime": "2025-11-22T13:00:00+08:00"
      },
      "request": {"method": "PUT", "url": "Condition/TW20006-AMI-C1"}
    }
  ]
}
