{
  "resourceType": "Bundle",
  "type": "transaction",
  "entry": [
    {
      "fullUrl": "urn:uuid:patient-1",
      "resource": {
        "resourceType": "Patient",
        "id": "SEDATIVE-P1-2025Q4",
        "gender": "female",
        "birthDate": "1965-08-12",
        "name": [
          {
            "text": "周美玲",
            "family": "Zhou",
            "given": ["Meiling"]
          }
        ]
      },
      "request": {
        "method": "PUT",
        "url": "Patient/SEDATIVE-P1-2025Q4"
      }
    },
    {
      "fullUrl": "urn:uuid:patient-2",
      "resource": {
        "resourceType": "Patient",
        "id": "SEDATIVE-P2-2025Q4",
        "gender": "male",
        "birthDate": "1958-04-25",
        "name": [
          {
            "text": "吳志強",
            "family": "Wu",
            "given": ["Zhiqiang"]
          }
        ]
      },
      "request": {
        "method": "PUT",
        "url": "Patient/SEDATIVE-P2-2025Q4"
      }
    },
    {
      "fullUrl": "urn:uuid:patient-3",
      "resource": {
        "resourceType": "Patient",
        "id": "SEDATIVE-P3-2025Q4",
        "gender": "female",
        "birthDate": "1970-11-30",
        "name": [
          {
            "text": "鄭淑芬",
            "family": "Zheng",
            "given": ["Shufen"]
          }
        ]
      },
      "request": {
        "method": "PUT",
        "url": "Patient/SEDATIVE-P3-2025Q4"
      }
    },
    {
      "fullUrl": "urn:uuid:patient-4",
      "resource": {
        "resourceType": "Patient",
        "id": "SEDATIVE-P4-2025Q4",
        "gender": "male",
        "birthDate": "1963-02-18",
        "name": [
          {
            "text": "黃建華",
            "family": "Huang",
            "given": ["Jianhua"]
          }
        ]
      },
      "request": {
        "method": "PUT",
        "url": "Patient/SEDATIVE-P4-2025Q4"
      }
    },
    {
      "fullUrl": "urn:uuid:encounter-1",
      "resource": {
        "resourceType": "Encounter",
        "id": "SEDATIVE-E1-2025Q4",
        "status": "finished",
        "class": {
          "system": "http://terminology.hl7.org/CodeSystem/v3-ActCode",
          "code": "AMB",
          "display": "ambulatory"
        },
        "subject": {
          "reference": "Patient/SEDATIVE-P1-2025Q4"
        },
        "period": {
          "start": "2025-10-01T09:00:00+08:00",
          "end": "2025-10-01T09:30:00+08:00"
        }
      },
      "request": {
        "method": "PUT",
        "url": "Encounter/SEDATIVE-E1-2025Q4"
      }
    },
    {
      "fullUrl": "urn:uuid:medication-1",
      "resource": {
        "resourceType": "MedicationRequest",
        "id": "SEDATIVE-M1-2025Q4",
        "status": "completed",
        "intent": "order",
        "medicationCodeableConcept": {
          "coding": [
            {
              "system": "http://www.whocc.no/atc",
              "code": "N05CF02",
              "display": "Zolpidem"
            }
          ],
          "text": "使蒂諾斯 Zolpidem 10mg"
        },
        "subject": {
          "reference": "Patient/SEDATIVE-P1-2025Q4"
        },
        "encounter": {
          "reference": "Encounter/SEDATIVE-E1-2025Q4"
        },
        "authoredOn": "2025-10-01T09:00:00+08:00",
        "dosageInstruction": [
          {
            "timing": {
              "repeat": {
                "boundsPeriod": {
                  "start": "2025-10-01",
                  "end": "2025-10-28"
                },
                "frequency": 1,
                "period": 1,
                "periodUnit": "d"
              }
            },
            "doseAndRate": [
              {
                "doseQuantity": {
                  "value": 1,
                  "unit": "tablet"
                }
              }
            ]
          }
        ],
        "dispenseRequest": {
          "validityPeriod": {
            "start": "2025-10-01",
            "end": "2025-10-28"
          },
          "quantity": {
            "value": 28,
            "unit": "tablet"
          },
          "expectedSupplyDuration": {
            "value": 28,
            "unit": "days",
            "system": "http://unitsofmeasure.org",
            "code": "d"
          }
        }
      },
      "request": {
        "method": "PUT",
        "url": "MedicationRequest/SEDATIVE-M1-2025Q4"
      }
    },
    {
      "fullUrl": "urn:uuid:encounter-2",
      "resource": {
        "resourceType": "Encounter",
        "id": "SEDATIVE-E2-2025Q4",
        "status": "finished",
        "class": {
          "system": "http://terminology.hl7.org/CodeSystem/v3-ActCode",
          "code": "AMB",
          "display": "ambulatory"
        },
        "subject": {
          "reference": "Patient/SEDATIVE-P1-2025Q4"
        },
        "period": {
          "start": "2025-10-19T10:00:00+08:00",
          "end": "2025-10-19T10:30:00+08:00"
        }
      },
      "request": {
        "method": "PUT",
        "url": "Encounter/SEDATIVE-E2-2025Q4"
      }
    },
    {
      "fullUrl": "urn:uuid:medication-2",
      "resource": {
        "resourceType": "MedicationRequest",
        "id": "SEDATIVE-M2-2025Q4",
        "status": "completed",
        "intent": "order",
        "medicationCodeableConcept": {
          "coding": [
            {
              "system": "http://www.whocc.no/atc",
              "code": "N05CF02",
              "display": "Zolpidem"
            }
          ],
          "text": "使蒂諾斯 Zolpidem 10mg"
        },
        "subject": {
          "reference": "Patient/SEDATIVE-P1-2025Q4"
        },
        "encounter": {
          "reference": "Encounter/SEDATIVE-E2-2025Q4"
        },
        "authoredOn": "2025-10-19T10:00:00+08:00",
        "dosageInstruction": [
          {
            "timing": {
              "repeat": {
                "boundsPeriod": {
                  "start": "2025-10-19",
                  "end": "2025-11-15"
                },
                "frequency": 1,
                "period": 1,
                "periodUnit": "d"
              }
            },
            "doseAndRate": [
              {
                "doseQuantity": {
                  "value": 1,
                  "unit": "tablet"
                }
              }
            ]
          }
        ],
        "dispenseRequest": {
          "validityPeriod": {
            "start": "2025-10-19",
            "end": "2025-11-15"
          },
          "quantity": {
            "value": 28,
            "unit": "tablet"
          },
          "expectedSupplyDuration": {
            "value": 28,
            "unit": "days",
            "system": "http://unitsofmeasure.org",
            "code": "d"
          }
        }
      },
      "request": {
        "method": "PUT",
        "url": "MedicationRequest/SEDATIVE-M2-2025Q4"
      }
    },
    {
      "fullUrl": "urn:uuid:encounter-3",
      "resource": {
        "resourceType": "Encounter",
        "id": "SEDATIVE-E3-2025Q4",
        "status": "finished",
        "class": {
          "system": "http://terminology.hl7.org/CodeSystem/v3-ActCode",
          "code": "AMB",
          "display": "ambulatory"
        },
        "subject": {
          "reference": "Patient/SEDATIVE-P2-2025Q4"
        },
        "period": {
          "start": "2025-10-05T11:00:00+08:00",
          "end": "2025-10-05T11:30:00+08:00"
        }
      },
      "request": {
        "method": "PUT",
        "url": "Encounter/SEDATIVE-E3-2025Q4"
      }
    },
    {
      "fullUrl": "urn:uuid:medication-3",
      "resource": {
        "resourceType": "MedicationRequest",
        "id": "SEDATIVE-M3-2025Q4",
        "status": "completed",
        "intent": "order",
        "medicationCodeableConcept": {
          "coding": [
            {
              "system": "http://www.whocc.no/atc",
              "code": "N05BA12",
              "display": "Alprazolam"
            }
          ],
          "text": "贊安諾 Alprazolam 0.5mg"
        },
        "subject": {
          "reference": "Patient/SEDATIVE-P2-2025Q4"
        },
        "encounter": {
          "reference": "Encounter/SEDATIVE-E3-2025Q4"
        },
        "authoredOn": "2025-10-05T11:00:00+08:00",
        "dosageInstruction": [
          {
            "timing": {
              "repeat": {
                "boundsPeriod": {
                  "start": "2025-10-05",
                  "end": "2025-11-01"
                },
                "frequency": 1,
                "period": 1,
                "periodUnit": "d"
              }
            },
            "doseAndRate": [
              {
                "doseQuantity": {
                  "value": 1,
                  "unit": "tablet"
                }
              }
            ]
          }
        ],
        "dispenseRequest": {
          "validityPeriod": {
            "start": "2025-10-05",
            "end": "2025-11-01"
          },
          "quantity": {
            "value": 28,
            "unit": "tablet"
          },
          "expectedSupplyDuration": {
            "value": 28,
            "unit": "days",
            "system": "http://unitsofmeasure.org",
            "code": "d"
          }
        }
      },
      "request": {
        "method": "PUT",
        "url": "MedicationRequest/SEDATIVE-M3-2025Q4"
      }
    },
    {
      "fullUrl": "urn:uuid:encounter-4",
      "resource": {
        "resourceType": "Encounter",
        "id": "SEDATIVE-E4-2025Q4",
        "status": "finished",
        "class": {
          "system": "http://terminology.hl7.org/CodeSystem/v3-ActCode",
          "code": "AMB",
          "display": "ambulatory"
        },
        "subject": {
          "reference": "Patient/SEDATIVE-P2-2025Q4"
        },
        "period": {
          "start": "2025-10-25T14:00:00+08:00",
          "end": "2025-10-25T14:30:00+08:00"
        }
      },
      "request": {
        "method": "PUT",
        "url": "Encounter/SEDATIVE-E4-2025Q4"
      }
    },
    {
      "fullUrl": "urn:uuid:medication-4",
      "resource": {
        "resourceType": "MedicationRequest",
        "id": "SEDATIVE-M4-2025Q4",
        "status": "completed",
        "intent": "order",
        "medicationCodeableConcept": {
          "coding": [
            {
              "system": "http://www.whocc.no/atc",
              "code": "N05BA12",
              "display": "Alprazolam"
            }
          ],
          "text": "贊安諾 Alprazolam 0.5mg"
        },
        "subject": {
          "reference": "Patient/SEDATIVE-P2-2025Q4"
        },
        "encounter": {
          "reference": "Encounter/SEDATIVE-E4-2025Q4"
        },
        "authoredOn": "2025-10-25T14:00:00+08:00",
        "dosageInstruction": [
          {
            "timing": {
              "repeat": {
                "boundsPeriod": {
                  "start": "2025-10-25",
                  "end": "2025-11-21"
                },
                "frequency": 1,
                "period": 1,
                "periodUnit": "d"
              }
            },
            "doseAndRate": [
              {
                "doseQuantity": {
                  "value": 1,
                  "unit": "tablet"
                }
              }
            ]
          }
        ],
        "dispenseRequest": {
          "validityPeriod": {
            "start": "2025-10-25",
            "end": "2025-11-21"
          },
          "quantity": {
            "value": 28,
            "unit": "tablet"
          },
          "expectedSupplyDuration": {
            "value": 28,
            "unit": "days",
            "system": "http://unitsofmeasure.org",
            "code": "d"
          }
        }
      },
      "request": {
        "method": "PUT",
        "url": "MedicationRequest/SEDATIVE-M4-2025Q4"
      }
    },
    {
      "fullUrl": "urn:uuid:encounter-5",
      "resource": {
        "resourceType": "Encounter",
        "id": "SEDATIVE-E5-2025Q4",
        "status": "finished",
        "class": {
          "system": "http://terminology.hl7.org/CodeSystem/v3-ActCode",
          "code": "AMB",
          "display": "ambulatory"
        },
        "subject": {
          "reference": "Patient/SEDATIVE-P3-2025Q4"
        },
        "period": {
          "start": "2025-10-10T09:00:00+08:00",
          "end": "2025-10-10T09:30:00+08:00"
        }
      },
      "request": {
        "method": "PUT",
        "url": "Encounter/SEDATIVE-E5-2025Q4"
      }
    },
    {
      "fullUrl": "urn:uuid:medication-5",
      "resource": {
        "resourceType": "MedicationRequest",
        "id": "SEDATIVE-M5-2025Q4",
        "status": "completed",
        "intent": "order",
        "medicationCodeableConcept": {
          "coding": [
            {
              "system": "http://www.whocc.no/atc",
              "code": "N05BA06",
              "display": "Lorazepam"
            }
          ],
          "text": "安定文 Lorazepam 0.5mg"
        },
        "subject": {
          "reference": "Patient/SEDATIVE-P3-2025Q4"
        },
        "encounter": {
          "reference": "Encounter/SEDATIVE-E5-2025Q4"
        },
        "authoredOn": "2025-10-10T09:00:00+08:00",
        "dosageInstruction": [
          {
            "timing": {
              "repeat": {
                "boundsPeriod": {
                  "start": "2025-10-10",
                  "end": "2025-11-06"
                },
                "frequency": 1,
                "period": 1,
                "periodUnit": "d"
              }
            },
            "doseAndRate": [
              {
                "doseQuantity": {
                  "value": 1,
                  "unit": "tablet"
                }
              }
            ]
          }
        ],
        "dispenseRequest": {
          "validityPeriod": {
            "start": "2025-10-10",
            "end": "2025-11-06"
          },
          "quantity": {
            "value": 28,
            "unit": "tablet"
          },
          "expectedSupplyDuration": {
            "value": 28,
            "unit": "days",
            "system": "http://unitsofmeasure.org",
            "code": "d"
          }
        }
      },
      "request": {
        "method": "PUT",
        "url": "MedicationRequest/SEDATIVE-M5-2025Q4"
      }
    },
    {
      "fullUrl": "urn:uuid:encounter-6",
      "resource": {
        "resourceType": "Encounter",
        "id": "SEDATIVE-E6-2025Q4",
        "status": "finished",
        "class": {
          "system": "http://terminology.hl7.org/CodeSystem/v3-ActCode",
          "code": "AMB",
          "display": "ambulatory"
        },
        "subject": {
          "reference": "Patient/SEDATIVE-P3-2025Q4"
        },
        "period": {
          "start": "2025-10-31T10:00:00+08:00",
          "end": "2025-10-31T10:30:00+08:00"
        }
      },
      "request": {
        "method": "PUT",
        "url": "Encounter/SEDATIVE-E6-2025Q4"
      }
    },
    {
      "fullUrl": "urn:uuid:medication-6",
      "resource": {
        "resourceType": "MedicationRequest",
        "id": "SEDATIVE-M6-2025Q4",
        "status": "completed",
        "intent": "order",
        "medicationCodeableConcept": {
          "coding": [
            {
              "system": "http://www.whocc.no/atc",
              "code": "N05CD05",
              "display": "Triazolam"
            }
          ],
          "text": "酣樂欣 Triazolam 0.25mg"
        },
        "subject": {
          "reference": "Patient/SEDATIVE-P3-2025Q4"
        },
        "encounter": {
          "reference": "Encounter/SEDATIVE-E6-2025Q4"
        },
        "authoredOn": "2025-10-31T10:00:00+08:00",
        "dosageInstruction": [
          {
            "timing": {
              "repeat": {
                "boundsPeriod": {
                  "start": "2025-10-31",
                  "end": "2025-11-27"
                },
                "frequency": 1,
                "period": 1,
                "periodUnit": "d"
              }
            },
            "doseAndRate": [
              {
                "doseQuantity": {
                  "value": 1,
                  "unit": "tablet"
                }
              }
            ]
          }
        ],
        "dispenseRequest": {
          "validityPeriod": {
            "start": "2025-10-31",
            "end": "2025-11-27"
          },
          "quantity": {
            "value": 28,
            "unit": "tablet"
          },
          "expectedSupplyDuration": {
            "value": 28,
            "unit": "days",
            "system": "http://unitsofmeasure.org",
            "code": "d"
          }
        }
      },
      "request": {
        "method": "PUT",
        "url": "MedicationRequest/SEDATIVE-M6-2025Q4"
      }
    },
    {
      "fullUrl": "urn:uuid:encounter-7",
      "resource": {
        "resourceType": "Encounter",
        "id": "SEDATIVE-E7-2025Q4",
        "status": "finished",
        "class": {
          "system": "http://terminology.hl7.org/CodeSystem/v3-ActCode",
          "code": "AMB",
          "display": "ambulatory"
        },
        "subject": {
          "reference": "Patient/SEDATIVE-P4-2025Q4"
        },
        "period": {
          "start": "2025-10-01T14:00:00+08:00",
          "end": "2025-10-01T14:30:00+08:00"
        }
      },
      "request": {
        "method": "PUT",
        "url": "Encounter/SEDATIVE-E7-2025Q4"
      }
    },
    {
      "fullUrl": "urn:uuid:medication-7",
      "resource": {
        "resourceType": "MedicationRequest",
        "id": "SEDATIVE-M7-2025Q4",
        "status": "completed",
        "intent": "order",
        "medicationCodeableConcept": {
          "coding": [
            {
              "system": "http://www.whocc.no/atc",
              "code": "N05CF01",
              "display": "Zopiclone"
            }
          ],
          "text": "宜眠安 Zopiclone 7.5mg"
        },
        "subject": {
          "reference": "Patient/SEDATIVE-P4-2025Q4"
        },
        "encounter": {
          "reference": "Encounter/SEDATIVE-E7-2025Q4"
        },
        "authoredOn": "2025-10-01T14:00:00+08:00",
        "dosageInstruction": [
          {
            "timing": {
              "repeat": {
                "boundsPeriod": {
                  "start": "2025-10-01",
                  "end": "2025-10-28"
                },
                "frequency": 1,
                "period": 1,
                "periodUnit": "d"
              }
            },
            "doseAndRate": [
              {
                "doseQuantity": {
                  "value": 1,
                  "unit": "tablet"
                }
              }
            ]
          }
        ],
        "dispenseRequest": {
          "validityPeriod": {
            "start": "2025-10-01",
            "end": "2025-10-28"
          },
          "quantity": {
            "value": 28,
            "unit": "tablet"
          },
          "expectedSupplyDuration": {
            "value": 28,
            "unit": "days",
            "system": "http://unitsofmeasure.org",
            "code": "d"
          }
        }
      },
      "request": {
        "method": "PUT",
        "url": "MedicationRequest/SEDATIVE-M7-2025Q4"
      }
    },
    {
      "fullUrl": "urn:uuid:encounter-8",
      "resource": {
        "resourceType": "Encounter",
        "id": "SEDATIVE-E8-2025Q4",
        "status": "finished",
        "class": {
          "system": "http://terminology.hl7.org/CodeSystem/v3-ActCode",
          "code": "AMB",
          "display": "ambulatory"
        },
        "subject": {
          "reference": "Patient/SEDATIVE-P4-2025Q4"
        },
        "period": {
          "start": "2025-10-29T15:00:00+08:00",
          "end": "2025-10-29T15:30:00+08:00"
        }
      },
      "request": {
        "method": "PUT",
        "url": "Encounter/SEDATIVE-E8-2025Q4"
      }
    },
    {
      "fullUrl": "urn:uuid:medication-8",
      "resource": {
        "resourceType": "MedicationRequest",
        "id": "SEDATIVE-M8-2025Q4",
        "status": "completed",
        "intent": "order",
        "medicationCodeableConcept": {
          "coding": [
            {
              "system": "http://www.whocc.no/atc",
              "code": "N05CF01",
              "display": "Zopiclone"
            }
          ],
          "text": "宜眠安 Zopiclone 7.5mg"
        },
        "subject": {
          "reference": "Patient/SEDATIVE-P4-2025Q4"
        },
        "encounter": {
          "reference": "Encounter/SEDATIVE-E8-2025Q4"
        },
        "authoredOn": "2025-10-29T15:00:00+08:00",
        "dosageInstruction": [
          {
            "timing": {
              "repeat": {
                "boundsPeriod": {
                  "start": "2025-10-29",
                  "end": "2025-11-25"
                },
                "frequency": 1,
                "period": 1,
                "periodUnit": "d"
              }
            },
            "doseAndRate": [
              {
                "doseQuantity": {
                  "value": 1,
                  "unit": "tablet"
                }
              }
            ]
          }
        ],
        "dispenseRequest": {
          "validityPeriod": {
            "start": "2025-10-29",
            "end": "2025-11-25"
          },
          "quantity": {
            "value": 28,
            "unit": "tablet"
          },
          "expectedSupplyDuration": {
            "value": 28,
            "unit": "days",
            "system": "http://unitsofmeasure.org",
            "code": "d"
          }
        }
      },
      "request": {
        "method": "PUT",
        "url": "MedicationRequest/SEDATIVE-M8-2025Q4"
      }
    }
  ]
}
