{
  "resourceType": "Bundle",
  "type": "transaction",
  "entry": [
    {
      "fullUrl": "urn:uuid:patient-1",
      "resource": {
        "resourceType": "Patient",
        "id": "ANTIDEPRESSANT-P1-2025Q4",
        "gender": "female",
        "birthDate": "1975-06-15",
        "name": [
          {
            "text": "王小美",
            "family": "Wang",
            "given": ["Xiaomei"]
          }
        ]
      },
      "request": {
        "method": "PUT",
        "url": "Patient/ANTIDEPRESSANT-P1-2025Q4"
      }
    },
    {
      "fullUrl": "urn:uuid:patient-2",
      "resource": {
        "resourceType": "Patient",
        "id": "ANTIDEPRESSANT-P2-2025Q4",
        "gender": "male",
        "birthDate": "1980-03-22",
        "name": [
          {
            "text": "李志明",
            "family": "Li",
            "given": ["Zhiming"]
          }
        ]
      },
      "request": {
        "method": "PUT",
        "url": "Patient/ANTIDEPRESSANT-P2-2025Q4"
      }
    },
    {
      "fullUrl": "urn:uuid:patient-3",
      "resource": {
        "resourceType": "Patient",
        "id": "ANTIDEPRESSANT-P3-2025Q4",
        "gender": "female",
        "birthDate": "1972-11-08",
        "name": [
          {
            "text": "陳雅婷",
            "family": "Chen",
            "given": ["Yating"]
          }
        ]
      },
      "request": {
        "method": "PUT",
        "url": "Patient/ANTIDEPRESSANT-P3-2025Q4"
      }
    },
    {
      "fullUrl": "urn:uuid:patient-4",
      "resource": {
        "resourceType": "Patient",
        "id": "ANTIDEPRESSANT-P4-2025Q4",
        "gender": "male",
        "birthDate": "1968-09-30",
        "name": [
          {
            "text": "林建國",
            "family": "Lin",
            "given": ["Jianguo"]
          }
        ]
      },
      "request": {
        "method": "PUT",
        "url": "Patient/ANTIDEPRESSANT-P4-2025Q4"
      }
    },
    {
      "fullUrl": "urn:uuid:encounter-1",
      "resource": {
        "resourceType": "Encounter",
        "id": "ANTIDEPRESSANT-E1-2025Q4",
        "status": "finished",
        "class": {
          "system": "http://terminology.hl7.org/CodeSystem/v3-ActCode",
          "code": "AMB",
          "display": "ambulatory"
        },
        "subject": {
          "reference": "Patient/ANTIDEPRESSANT-P1-2025Q4"
        },
        "period": {
          "start": "2025-10-01T09:00:00+08:00",
          "end": "2025-10-01T09:30:00+08:00"
        }
      },
      "request": {
        "method": "PUT",
        "url": "Encounter/ANTIDEPRESSANT-E1-2025Q4"
      }
    },
    {
      "fullUrl": "urn:uuid:medication-1",
      "resource": {
        "resourceType": "MedicationRequest",
        "id": "ANTIDEPRESSANT-M1-2025Q4",
        "status": "completed",
        "intent": "order",
        "medicationCodeableConcept": {
          "coding": [
            {
              "system": "http://www.whocc.no/atc",
              "code": "N06AB03",
              "display": "Fluoxetine"
            }
          ],
          "text": "百憂解 Fluoxetine 20mg"
        },
        "subject": {
          "reference": "Patient/ANTIDEPRESSANT-P1-2025Q4"
        },
        "encounter": {
          "reference": "Encounter/ANTIDEPRESSANT-E1-2025Q4"
        },
        "authoredOn": "2025-10-01T09:00:00+08:00",
        "dosageInstruction": [
          {
            "timing": {
              "repeat": {
                "boundsPeriod": {
                  "start": "2025-10-01",
                  "end": "2025-10-28"
                },
                "frequency": 1,
                "period": 1,
                "periodUnit": "d"
              }
            },
            "doseAndRate": [
              {
                "doseQuantity": {
                  "value": 1,
                  "unit": "capsule"
                }
              }
            ]
          }
        ],
        "dispenseRequest": {
          "validityPeriod": {
            "start": "2025-10-01",
            "end": "2025-10-28"
          },
          "quantity": {
            "value": 28,
            "unit": "capsule"
          },
          "expectedSupplyDuration": {
            "value": 28,
            "unit": "days",
            "system": "http://unitsofmeasure.org",
            "code": "d"
          }
        }
      },
      "request": {
        "method": "PUT",
        "url": "MedicationRequest/ANTIDEPRESSANT-M1-2025Q4"
      }
    },
    {
      "fullUrl": "urn:uuid:encounter-2",
      "resource": {
        "resourceType": "Encounter",
        "id": "ANTIDEPRESSANT-E2-2025Q4",
        "status": "finished",
        "class": {
          "system": "http://terminology.hl7.org/CodeSystem/v3-ActCode",
          "code": "AMB",
          "display": "ambulatory"
        },
        "subject": {
          "reference": "Patient/ANTIDEPRESSANT-P1-2025Q4"
        },
        "period": {
          "start": "2025-10-19T10:00:00+08:00",
          "end": "2025-10-19T10:30:00+08:00"
        }
      },
      "request": {
        "method": "PUT",
        "url": "Encounter/ANTIDEPRESSANT-E2-2025Q4"
      }
    },
    {
      "fullUrl": "urn:uuid:medication-2",
      "resource": {
        "resourceType": "MedicationRequest",
        "id": "ANTIDEPRESSANT-M2-2025Q4",
        "status": "completed",
        "intent": "order",
        "medicationCodeableConcept": {
          "coding": [
            {
              "system": "http://www.whocc.no/atc",
              "code": "N06AB03",
              "display": "Fluoxetine"
            }
          ],
          "text": "百憂解 Fluoxetine 20mg"
        },
        "subject": {
          "reference": "Patient/ANTIDEPRESSANT-P1-2025Q4"
        },
        "encounter": {
          "reference": "Encounter/ANTIDEPRESSANT-E2-2025Q4"
        },
        "authoredOn": "2025-10-19T10:00:00+08:00",
        "dosageInstruction": [
          {
            "timing": {
              "repeat": {
                "boundsPeriod": {
                  "start": "2025-10-19",
                  "end": "2025-11-15"
                },
                "frequency": 1,
                "period": 1,
                "periodUnit": "d"
              }
            },
            "doseAndRate": [
              {
                "doseQuantity": {
                  "value": 1,
                  "unit": "capsule"
                }
              }
            ]
          }
        ],
        "dispenseRequest": {
          "validityPeriod": {
            "start": "2025-10-19",
            "end": "2025-11-15"
          },
          "quantity": {
            "value": 28,
            "unit": "capsule"
          },
          "expectedSupplyDuration": {
            "value": 28,
            "unit": "days",
            "system": "http://unitsofmeasure.org",
            "code": "d"
          }
        }
      },
      "request": {
        "method": "PUT",
        "url": "MedicationRequest/ANTIDEPRESSANT-M2-2025Q4"
      }
    },
    {
      "fullUrl": "urn:uuid:encounter-3",
      "resource": {
        "resourceType": "Encounter",
        "id": "ANTIDEPRESSANT-E3-2025Q4",
        "status": "finished",
        "class": {
          "system": "http://terminology.hl7.org/CodeSystem/v3-ActCode",
          "code": "AMB",
          "display": "ambulatory"
        },
        "subject": {
          "reference": "Patient/ANTIDEPRESSANT-P2-2025Q4"
        },
        "period": {
          "start": "2025-10-05T11:00:00+08:00",
          "end": "2025-10-05T11:30:00+08:00"
        }
      },
      "request": {
        "method": "PUT",
        "url": "Encounter/ANTIDEPRESSANT-E3-2025Q4"
      }
    },
    {
      "fullUrl": "urn:uuid:medication-3",
      "resource": {
        "resourceType": "MedicationRequest",
        "id": "ANTIDEPRESSANT-M3-2025Q4",
        "status": "completed",
        "intent": "order",
        "medicationCodeableConcept": {
          "coding": [
            {
              "system": "http://www.whocc.no/atc",
              "code": "N06AB06",
              "display": "Sertraline"
            }
          ],
          "text": "樂復得 Sertraline 50mg"
        },
        "subject": {
          "reference": "Patient/ANTIDEPRESSANT-P2-2025Q4"
        },
        "encounter": {
          "reference": "Encounter/ANTIDEPRESSANT-E3-2025Q4"
        },
        "authoredOn": "2025-10-05T11:00:00+08:00",
        "dosageInstruction": [
          {
            "timing": {
              "repeat": {
                "boundsPeriod": {
                  "start": "2025-10-05",
                  "end": "2025-11-01"
                },
                "frequency": 1,
                "period": 1,
                "periodUnit": "d"
              }
            },
            "doseAndRate": [
              {
                "doseQuantity": {
                  "value": 1,
                  "unit": "tablet"
                }
              }
            ]
          }
        ],
        "dispenseRequest": {
          "validityPeriod": {
            "start": "2025-10-05",
            "end": "2025-11-01"
          },
          "quantity": {
            "value": 28,
            "unit": "tablet"
          },
          "expectedSupplyDuration": {
            "value": 28,
            "unit": "days",
            "system": "http://unitsofmeasure.org",
            "code": "d"
          }
        }
      },
      "request": {
        "method": "PUT",
        "url": "MedicationRequest/ANTIDEPRESSANT-M3-2025Q4"
      }
    },
    {
      "fullUrl": "urn:uuid:encounter-4",
      "resource": {
        "resourceType": "Encounter",
        "id": "ANTIDEPRESSANT-E4-2025Q4",
        "status": "finished",
        "class": {
          "system": "http://terminology.hl7.org/CodeSystem/v3-ActCode",
          "code": "AMB",
          "display": "ambulatory"
        },
        "subject": {
          "reference": "Patient/ANTIDEPRESSANT-P2-2025Q4"
        },
        "period": {
          "start": "2025-10-26T14:00:00+08:00",
          "end": "2025-10-26T14:30:00+08:00"
        }
      },
      "request": {
        "method": "PUT",
        "url": "Encounter/ANTIDEPRESSANT-E4-2025Q4"
      }
    },
    {
      "fullUrl": "urn:uuid:medication-4",
      "resource": {
        "resourceType": "MedicationRequest",
        "id": "ANTIDEPRESSANT-M4-2025Q4",
        "status": "completed",
        "intent": "order",
        "medicationCodeableConcept": {
          "coding": [
            {
              "system": "http://www.whocc.no/atc",
              "code": "N06AB06",
              "display": "Sertraline"
            }
          ],
          "text": "樂復得 Sertraline 50mg"
        },
        "subject": {
          "reference": "Patient/ANTIDEPRESSANT-P2-2025Q4"
        },
        "encounter": {
          "reference": "Encounter/ANTIDEPRESSANT-E4-2025Q4"
        },
        "authoredOn": "2025-10-26T14:00:00+08:00",
        "dosageInstruction": [
          {
            "timing": {
              "repeat": {
                "boundsPeriod": {
                  "start": "2025-10-26",
                  "end": "2025-11-22"
                },
                "frequency": 1,
                "period": 1,
                "periodUnit": "d"
              }
            },
            "doseAndRate": [
              {
                "doseQuantity": {
                  "value": 1,
                  "unit": "tablet"
                }
              }
            ]
          }
        ],
        "dispenseRequest": {
          "validityPeriod": {
            "start": "2025-10-26",
            "end": "2025-11-22"
          },
          "quantity": {
            "value": 28,
            "unit": "tablet"
          },
          "expectedSupplyDuration": {
            "value": 28,
            "unit": "days",
            "system": "http://unitsofmeasure.org",
            "code": "d"
          }
        }
      },
      "request": {
        "method": "PUT",
        "url": "MedicationRequest/ANTIDEPRESSANT-M4-2025Q4"
      }
    },
    {
      "fullUrl": "urn:uuid:encounter-5",
      "resource": {
        "resourceType": "Encounter",
        "id": "ANTIDEPRESSANT-E5-2025Q4",
        "status": "finished",
        "class": {
          "system": "http://terminology.hl7.org/CodeSystem/v3-ActCode",
          "code": "AMB",
          "display": "ambulatory"
        },
        "subject": {
          "reference": "Patient/ANTIDEPRESSANT-P3-2025Q4"
        },
        "period": {
          "start": "2025-10-10T09:00:00+08:00",
          "end": "2025-10-10T09:30:00+08:00"
        }
      },
      "request": {
        "method": "PUT",
        "url": "Encounter/ANTIDEPRESSANT-E5-2025Q4"
      }
    },
    {
      "fullUrl": "urn:uuid:medication-5",
      "resource": {
        "resourceType": "MedicationRequest",
        "id": "ANTIDEPRESSANT-M5-2025Q4",
        "status": "completed",
        "intent": "order",
        "medicationCodeableConcept": {
          "coding": [
            {
              "system": "http://www.whocc.no/atc",
              "code": "N06AB10",
              "display": "Escitalopram"
            }
          ],
          "text": "離憂 Escitalopram 10mg"
        },
        "subject": {
          "reference": "Patient/ANTIDEPRESSANT-P3-2025Q4"
        },
        "encounter": {
          "reference": "Encounter/ANTIDEPRESSANT-E5-2025Q4"
        },
        "authoredOn": "2025-10-10T09:00:00+08:00",
        "dosageInstruction": [
          {
            "timing": {
              "repeat": {
                "boundsPeriod": {
                  "start": "2025-10-10",
                  "end": "2025-11-06"
                },
                "frequency": 1,
                "period": 1,
                "periodUnit": "d"
              }
            },
            "doseAndRate": [
              {
                "doseQuantity": {
                  "value": 1,
                  "unit": "tablet"
                }
              }
            ]
          }
        ],
        "dispenseRequest": {
          "validityPeriod": {
            "start": "2025-10-10",
            "end": "2025-11-06"
          },
          "quantity": {
            "value": 28,
            "unit": "tablet"
          },
          "expectedSupplyDuration": {
            "value": 28,
            "unit": "days",
            "system": "http://unitsofmeasure.org",
            "code": "d"
          }
        }
      },
      "request": {
        "method": "PUT",
        "url": "MedicationRequest/ANTIDEPRESSANT-M5-2025Q4"
      }
    },
    {
      "fullUrl": "urn:uuid:encounter-6",
      "resource": {
        "resourceType": "Encounter",
        "id": "ANTIDEPRESSANT-E6-2025Q4",
        "status": "finished",
        "class": {
          "system": "http://terminology.hl7.org/CodeSystem/v3-ActCode",
          "code": "AMB",
          "display": "ambulatory"
        },
        "subject": {
          "reference": "Patient/ANTIDEPRESSANT-P3-2025Q4"
        },
        "period": {
          "start": "2025-10-29T10:00:00+08:00",
          "end": "2025-10-29T10:30:00+08:00"
        }
      },
      "request": {
        "method": "PUT",
        "url": "Encounter/ANTIDEPRESSANT-E6-2025Q4"
      }
    },
    {
      "fullUrl": "urn:uuid:medication-6",
      "resource": {
        "resourceType": "MedicationRequest",
        "id": "ANTIDEPRESSANT-M6-2025Q4",
        "status": "completed",
        "intent": "order",
        "medicationCodeableConcept": {
          "coding": [
            {
              "system": "http://www.whocc.no/atc",
              "code": "N06AB05",
              "display": "Paroxetine"
            }
          ],
          "text": "克憂果 Paroxetine 20mg"
        },
        "subject": {
          "reference": "Patient/ANTIDEPRESSANT-P3-2025Q4"
        },
        "encounter": {
          "reference": "Encounter/ANTIDEPRESSANT-E6-2025Q4"
        },
        "authoredOn": "2025-10-29T10:00:00+08:00",
        "dosageInstruction": [
          {
            "timing": {
              "repeat": {
                "boundsPeriod": {
                  "start": "2025-10-29",
                  "end": "2025-11-25"
                },
                "frequency": 1,
                "period": 1,
                "periodUnit": "d"
              }
            },
            "doseAndRate": [
              {
                "doseQuantity": {
                  "value": 1,
                  "unit": "tablet"
                }
              }
            ]
          }
        ],
        "dispenseRequest": {
          "validityPeriod": {
            "start": "2025-10-29",
            "end": "2025-11-25"
          },
          "quantity": {
            "value": 28,
            "unit": "tablet"
          },
          "expectedSupplyDuration": {
            "value": 28,
            "unit": "days",
            "system": "http://unitsofmeasure.org",
            "code": "d"
          }
        }
      },
      "request": {
        "method": "PUT",
        "url": "MedicationRequest/ANTIDEPRESSANT-M6-2025Q4"
      }
    },
    {
      "fullUrl": "urn:uuid:encounter-7",
      "resource": {
        "resourceType": "Encounter",
        "id": "ANTIDEPRESSANT-E7-2025Q4",
        "status": "finished",
        "class": {
          "system": "http://terminology.hl7.org/CodeSystem/v3-ActCode",
          "code": "AMB",
          "display": "ambulatory"
        },
        "subject": {
          "reference": "Patient/ANTIDEPRESSANT-P4-2025Q4"
        },
        "period": {
          "start": "2025-10-01T14:00:00+08:00",
          "end": "2025-10-01T14:30:00+08:00"
        }
      },
      "request": {
        "method": "PUT",
        "url": "Encounter/ANTIDEPRESSANT-E7-2025Q4"
      }
    },
    {
      "fullUrl": "urn:uuid:medication-7",
      "resource": {
        "resourceType": "MedicationRequest",
        "id": "ANTIDEPRESSANT-M7-2025Q4",
        "status": "completed",
        "intent": "order",
        "medicationCodeableConcept": {
          "coding": [
            {
              "system": "http://www.whocc.no/atc",
              "code": "N06AA09",
              "display": "Amitriptyline"
            }
          ],
          "text": "阿米替林 Amitriptyline 25mg"
        },
        "subject": {
          "reference": "Patient/ANTIDEPRESSANT-P4-2025Q4"
        },
        "encounter": {
          "reference": "Encounter/ANTIDEPRESSANT-E7-2025Q4"
        },
        "authoredOn": "2025-10-01T14:00:00+08:00",
        "dosageInstruction": [
          {
            "timing": {
              "repeat": {
                "boundsPeriod": {
                  "start": "2025-10-01",
                  "end": "2025-10-28"
                },
                "frequency": 1,
                "period": 1,
                "periodUnit": "d"
              }
            },
            "doseAndRate": [
              {
                "doseQuantity": {
                  "value": 1,
                  "unit": "tablet"
                }
              }
            ]
          }
        ],
        "dispenseRequest": {
          "validityPeriod": {
            "start": "2025-10-01",
            "end": "2025-10-28"
          },
          "quantity": {
            "value": 28,
            "unit": "tablet"
          },
          "expectedSupplyDuration": {
            "value": 28,
            "unit": "days",
            "system": "http://unitsofmeasure.org",
            "code": "d"
          }
        }
      },
      "request": {
        "method": "PUT",
        "url": "MedicationRequest/ANTIDEPRESSANT-M7-2025Q4"
      }
    },
    {
      "fullUrl": "urn:uuid:encounter-8",
      "resource": {
        "resourceType": "Encounter",
        "id": "ANTIDEPRESSANT-E8-2025Q4",
        "status": "finished",
        "class": {
          "system": "http://terminology.hl7.org/CodeSystem/v3-ActCode",
          "code": "AMB",
          "display": "ambulatory"
        },
        "subject": {
          "reference": "Patient/ANTIDEPRESSANT-P4-2025Q4"
        },
        "period": {
          "start": "2025-10-29T15:00:00+08:00",
          "end": "2025-10-29T15:30:00+08:00"
        }
      },
      "request": {
        "method": "PUT",
        "url": "Encounter/ANTIDEPRESSANT-E8-2025Q4"
      }
    },
    {
      "fullUrl": "urn:uuid:medication-8",
      "resource": {
        "resourceType": "MedicationRequest",
        "id": "ANTIDEPRESSANT-M8-2025Q4",
        "status": "completed",
        "intent": "order",
        "medicationCodeableConcept": {
          "coding": [
            {
              "system": "http://www.whocc.no/atc",
              "code": "N06AA09",
              "display": "Amitriptyline"
            }
          ],
          "text": "阿米替林 Amitriptyline 25mg"
        },
        "subject": {
          "reference": "Patient/ANTIDEPRESSANT-P4-2025Q4"
        },
        "encounter": {
          "reference": "Encounter/ANTIDEPRESSANT-E8-2025Q4"
        },
        "authoredOn": "2025-10-29T15:00:00+08:00",
        "dosageInstruction": [
          {
            "timing": {
              "repeat": {
                "boundsPeriod": {
                  "start": "2025-10-29",
                  "end": "2025-11-25"
                },
                "frequency": 1,
                "period": 1,
                "periodUnit": "d"
              }
            },
            "doseAndRate": [
              {
                "doseQuantity": {
                  "value": 1,
                  "unit": "tablet"
                }
              }
            ]
          }
        ],
        "dispenseRequest": {
          "validityPeriod": {
            "start": "2025-10-29",
            "end": "2025-11-25"
          },
          "quantity": {
            "value": 28,
            "unit": "tablet"
          },
          "expectedSupplyDuration": {
            "value": 28,
            "unit": "days",
            "system": "http://unitsofmeasure.org",
            "code": "d"
          }
        }
      },
      "request": {
        "method": "PUT",
        "url": "MedicationRequest/ANTIDEPRESSANT-M8-2025Q4"
      }
    }
  ]
}
