{
  "resourceType": "Bundle",
  "type": "transaction",
  "entry": [
    {
      "resource": {
        "resourceType": "Patient",
        "id": "patient-requested-cesarean-001",
        "gender": "female",
        "birthDate": "1990-02-14"
      },
      "request": {"method": "PUT", "url": "Patient/patient-requested-cesarean-001"}
    },
    {
      "resource": {
        "resourceType": "Encounter",
        "id": "patient-requested-enc-001",
        "status": "finished",
        "class": {"system": "http://terminology.hl7.org/CodeSystem/v3-ActCode", "code": "IMP"},
        "subject": {"reference": "Patient/patient-requested-cesarean-001"},
        "period": {"start": "2025-10-05T08:00:00Z", "end": "2025-10-08T10:00:00Z"}
      },
      "request": {"method": "PUT", "url": "Encounter/patient-requested-enc-001"}
    },
    {
      "resource": {
        "resourceType": "Condition",
        "id": "patient-requested-cond-001",
        "code": {"coding": [{"system": "http://hl7.org/fhir/sid/icd-10-cm", "code": "O82.8", "display": "其他剖腹產"}]},
        "subject": {"reference": "Patient/patient-requested-cesarean-001"},
        "encounter": {"reference": "Encounter/patient-requested-enc-001"}
      },
      "request": {"method": "PUT", "url": "Condition/patient-requested-cond-001"}
    },
    {
      "resource": {
        "resourceType": "Procedure",
        "id": "patient-requested-proc-001",
        "status": "completed",
        "code": {"coding": [{"system": "urn:oid:2.16.886.101.20003.20014", "code": "80402C", "display": "剖腹生產"}]},
        "subject": {"reference": "Patient/patient-requested-cesarean-001"},
        "encounter": {"reference": "Encounter/patient-requested-enc-001"},
        "performedDateTime": "2025-10-06T10:30:00Z"
      },
      "request": {"method": "PUT", "url": "Procedure/patient-requested-proc-001"}
    },
    {
      "resource": {
        "resourceType": "Patient",
        "id": "patient-requested-cesarean-002",
        "gender": "female",
        "birthDate": "1992-04-20"
      },
      "request": {"method": "PUT", "url": "Patient/patient-requested-cesarean-002"}
    },
    {
      "resource": {
        "resourceType": "Encounter",
        "id": "patient-requested-enc-002",
        "status": "finished",
        "class": {"system": "http://terminology.hl7.org/CodeSystem/v3-ActCode", "code": "IMP"},
        "subject": {"reference": "Patient/patient-requested-cesarean-002"},
        "period": {"start": "2025-10-12T09:00:00Z", "end": "2025-10-15T11:00:00Z"}
      },
      "request": {"method": "PUT", "url": "Encounter/patient-requested-enc-002"}
    },
    {
      "resource": {
        "resourceType": "Condition",
        "id": "patient-requested-cond-002",
        "code": {"coding": [{"system": "http://hl7.org/fhir/sid/icd-10-cm", "code": "O82.8", "display": "其他剖腹產"}]},
        "subject": {"reference": "Patient/patient-requested-cesarean-002"},
        "encounter": {"reference": "Encounter/patient-requested-enc-002"}
      },
      "request": {"method": "PUT", "url": "Condition/patient-requested-cond-002"}
    },
    {
      "resource": {
        "resourceType": "Procedure",
        "id": "patient-requested-proc-002",
        "status": "completed",
        "code": {"coding": [{"system": "urn:oid:2.16.886.101.20003.20014", "code": "80402C", "display": "剖腹生產"}]},
        "subject": {"reference": "Patient/patient-requested-cesarean-002"},
        "encounter": {"reference": "Encounter/patient-requested-enc-002"},
        "performedDateTime": "2025-10-13T14:20:00Z"
      },
      "request": {"method": "PUT", "url": "Procedure/patient-requested-proc-002"}
    },
    {
      "resource": {
        "resourceType": "Patient",
        "id": "patient-requested-cesarean-003",
        "gender": "female",
        "birthDate": "1988-06-10"
      },
      "request": {"method": "PUT", "url": "Patient/patient-requested-cesarean-003"}
    },
    {
      "resource": {
        "resourceType": "Encounter",
        "id": "patient-requested-enc-003",
        "status": "finished",
        "class": {"system": "http://terminology.hl7.org/CodeSystem/v3-ActCode", "code": "IMP"},
        "subject": {"reference": "Patient/patient-requested-cesarean-003"},
        "period": {"start": "2025-10-18T07:30:00Z", "end": "2025-10-21T09:00:00Z"}
      },
      "request": {"method": "PUT", "url": "Encounter/patient-requested-enc-003"}
    },
    {
      "resource": {
        "resourceType": "Condition",
        "id": "patient-requested-cond-003",
        "code": {"coding": [{"system": "http://hl7.org/fhir/sid/icd-10-cm", "code": "O82.8", "display": "其他剖腹產"}]},
        "subject": {"reference": "Patient/patient-requested-cesarean-003"},
        "encounter": {"reference": "Encounter/patient-requested-enc-003"}
      },
      "request": {"method": "PUT", "url": "Condition/patient-requested-cond-003"}
    },
    {
      "resource": {
        "resourceType": "Procedure",
        "id": "patient-requested-proc-003",
        "status": "completed",
        "code": {"coding": [{"system": "urn:oid:2.16.886.101.20003.20014", "code": "80402C", "display": "剖腹生產"}]},
        "subject": {"reference": "Patient/patient-requested-cesarean-003"},
        "encounter": {"reference": "Encounter/patient-requested-enc-003"},
        "performedDateTime": "2025-10-19T11:45:00Z"
      },
      "request": {"method": "PUT", "url": "Procedure/patient-requested-proc-003"}
    },
    {
      "resource": {
        "resourceType": "Patient",
        "id": "patient-requested-cesarean-004",
        "gender": "female",
        "birthDate": "1991-08-25"
      },
      "request": {"method": "PUT", "url": "Patient/patient-requested-cesarean-004"}
    },
    {
      "resource": {
        "resourceType": "Encounter",
        "id": "patient-requested-enc-004",
        "status": "finished",
        "class": {"system": "http://terminology.hl7.org/CodeSystem/v3-ActCode", "code": "IMP"},
        "subject": {"reference": "Patient/patient-requested-cesarean-004"},
        "period": {"start": "2025-11-02T08:00:00Z", "end": "2025-11-05T10:30:00Z"}
      },
      "request": {"method": "PUT", "url": "Encounter/patient-requested-enc-004"}
    },
    {
      "resource": {
        "resourceType": "Condition",
        "id": "patient-requested-cond-004",
        "code": {"coding": [{"system": "http://hl7.org/fhir/sid/icd-10-cm", "code": "O82.8", "display": "其他剖腹產"}]},
        "subject": {"reference": "Patient/patient-requested-cesarean-004"},
        "encounter": {"reference": "Encounter/patient-requested-enc-004"}
      },
      "request": {"method": "PUT", "url": "Condition/patient-requested-cond-004"}
    },
    {
      "resource": {
        "resourceType": "Procedure",
        "id": "patient-requested-proc-004",
        "status": "completed",
        "code": {"coding": [{"system": "urn:oid:2.16.886.101.20003.20014", "code": "80402C", "display": "剖腹生產"}]},
        "subject": {"reference": "Patient/patient-requested-cesarean-004"},
        "encounter": {"reference": "Encounter/patient-requested-enc-004"},
        "performedDateTime": "2025-11-03T09:15:00Z"
      },
      "request": {"method": "PUT", "url": "Procedure/patient-requested-proc-004"}
    },
    {
      "resource": {
        "resourceType": "Patient",
        "id": "patient-requested-cesarean-005",
        "gender": "female",
        "birthDate": "1989-10-30"
      },
      "request": {"method": "PUT", "url": "Patient/patient-requested-cesarean-005"}
    },
    {
      "resource": {
        "resourceType": "Encounter",
        "id": "patient-requested-enc-005",
        "status": "finished",
        "class": {"system": "http://terminology.hl7.org/CodeSystem/v3-ActCode", "code": "IMP"},
        "subject": {"reference": "Patient/patient-requested-cesarean-005"},
        "period": {"start": "2025-11-08T10:00:00Z", "end": "2025-11-11T12:00:00Z"}
      },
      "request": {"method": "PUT", "url": "Encounter/patient-requested-enc-005"}
    },
    {
      "resource": {
        "resourceType": "Condition",
        "id": "patient-requested-cond-005",
        "code": {"coding": [{"system": "http://hl7.org/fhir/sid/icd-10-cm", "code": "O82.8", "display": "其他剖腹產"}]},
        "subject": {"reference": "Patient/patient-requested-cesarean-005"},
        "encounter": {"reference": "Encounter/patient-requested-enc-005"}
      },
      "request": {"method": "PUT", "url": "Condition/patient-requested-cond-005"}
    },
    {
      "resource": {
        "resourceType": "Procedure",
        "id": "patient-requested-proc-005",
        "status": "completed",
        "code": {"coding": [{"system": "urn:oid:2.16.886.101.20003.20014", "code": "80402C", "display": "剖腹生產"}]},
        "subject": {"reference": "Patient/patient-requested-cesarean-005"},
        "encounter": {"reference": "Encounter/patient-requested-enc-005"},
        "performedDateTime": "2025-11-09T13:30:00Z"
      },
      "request": {"method": "PUT", "url": "Procedure/patient-requested-proc-005"}
    },
    {
      "resource": {
        "resourceType": "Patient",
        "id": "patient-requested-cesarean-006",
        "gender": "female",
        "birthDate": "1993-12-08"
      },
      "request": {"method": "PUT", "url": "Patient/patient-requested-cesarean-006"}
    },
    {
      "resource": {
        "resourceType": "Encounter",
        "id": "patient-requested-enc-006",
        "status": "finished",
        "class": {"system": "http://terminology.hl7.org/CodeSystem/v3-ActCode", "code": "IMP"},
        "subject": {"reference": "Patient/patient-requested-cesarean-006"},
        "period": {"start": "2025-11-15T09:00:00Z", "end": "2025-11-18T11:00:00Z"}
      },
      "request": {"method": "PUT", "url": "Encounter/patient-requested-enc-006"}
    },
    {
      "resource": {
        "resourceType": "Condition",
        "id": "patient-requested-cond-006",
        "code": {"coding": [{"system": "http://hl7.org/fhir/sid/icd-10-cm", "code": "O82.8", "display": "其他剖腹產"}]},
        "subject": {"reference": "Patient/patient-requested-cesarean-006"},
        "encounter": {"reference": "Encounter/patient-requested-enc-006"}
      },
      "request": {"method": "PUT", "url": "Condition/patient-requested-cond-006"}
    },
    {
      "resource": {
        "resourceType": "Procedure",
        "id": "patient-requested-proc-006",
        "status": "completed",
        "code": {"coding": [{"system": "urn:oid:2.16.886.101.20003.20014", "code": "80402C", "display": "剖腹生產"}]},
        "subject": {"reference": "Patient/patient-requested-cesarean-006"},
        "encounter": {"reference": "Encounter/patient-requested-enc-006"},
        "performedDateTime": "2025-11-16T10:45:00Z"
      },
      "request": {"method": "PUT", "url": "Procedure/patient-requested-proc-006"}
    },
    {
      "resource": {
        "resourceType": "Patient",
        "id": "patient-requested-cesarean-007",
        "gender": "female",
        "birthDate": "1990-01-15"
      },
      "request": {"method": "PUT", "url": "Patient/patient-requested-cesarean-007"}
    },
    {
      "resource": {
        "resourceType": "Encounter",
        "id": "patient-requested-enc-007",
        "status": "finished",
        "class": {"system": "http://terminology.hl7.org/CodeSystem/v3-ActCode", "code": "IMP"},
        "subject": {"reference": "Patient/patient-requested-cesarean-007"},
        "period": {"start": "2025-11-22T08:30:00Z", "end": "2025-11-25T10:00:00Z"}
      },
      "request": {"method": "PUT", "url": "Encounter/patient-requested-enc-007"}
    },
    {
      "resource": {
        "resourceType": "Condition",
        "id": "patient-requested-cond-007",
        "code": {"coding": [{"system": "http://hl7.org/fhir/sid/icd-10-cm", "code": "O82.8", "display": "其他剖腹產"}]},
        "subject": {"reference": "Patient/patient-requested-cesarean-007"},
        "encounter": {"reference": "Encounter/patient-requested-enc-007"}
      },
      "request": {"method": "PUT", "url": "Condition/patient-requested-cond-007"}
    },
    {
      "resource": {
        "resourceType": "Procedure",
        "id": "patient-requested-proc-007",
        "status": "completed",
        "code": {"coding": [{"system": "urn:oid:2.16.886.101.20003.20014", "code": "80402C", "display": "剖腹生產"}]},
        "subject": {"reference": "Patient/patient-requested-cesarean-007"},
        "encounter": {"reference": "Encounter/patient-requested-enc-007"},
        "performedDateTime": "2025-11-23T11:20:00Z"
      },
      "request": {"method": "PUT", "url": "Procedure/patient-requested-proc-007"}
    },
    {
      "resource": {
        "resourceType": "Patient",
        "id": "patient-requested-cesarean-008",
        "gender": "female",
        "birthDate": "1992-03-18"
      },
      "request": {"method": "PUT", "url": "Patient/patient-requested-cesarean-008"}
    },
    {
      "resource": {
        "resourceType": "Encounter",
        "id": "patient-requested-enc-008",
        "status": "finished",
        "class": {"system": "http://terminology.hl7.org/CodeSystem/v3-ActCode", "code": "IMP"},
        "subject": {"reference": "Patient/patient-requested-cesarean-008"},
        "period": {"start": "2025-11-28T07:00:00Z", "end": "2025-12-01T09:30:00Z"}
      },
      "request": {"method": "PUT", "url": "Encounter/patient-requested-enc-008"}
    },
    {
      "resource": {
        "resourceType": "Condition",
        "id": "patient-requested-cond-008",
        "code": {"coding": [{"system": "http://hl7.org/fhir/sid/icd-10-cm", "code": "O82.8", "display": "其他剖腹產"}]},
        "subject": {"reference": "Patient/patient-requested-cesarean-008"},
        "encounter": {"reference": "Encounter/patient-requested-enc-008"}
      },
      "request": {"method": "PUT", "url": "Condition/patient-requested-cond-008"}
    },
    {
      "resource": {
        "resourceType": "Procedure",
        "id": "patient-requested-proc-008",
        "status": "completed",
        "code": {"coding": [{"system": "urn:oid:2.16.886.101.20003.20014", "code": "80402C", "display": "剖腹生產"}]},
        "subject": {"reference": "Patient/patient-requested-cesarean-008"},
        "encounter": {"reference": "Encounter/patient-requested-enc-008"},
        "performedDateTime": "2025-11-29T12:10:00Z"
      },
      "request": {"method": "PUT", "url": "Procedure/patient-requested-proc-008"}
    },
    {
      "resource": {
        "resourceType": "Patient",
        "id": "patient-requested-cesarean-009",
        "gender": "female",
        "birthDate": "1991-05-22"
      },
      "request": {"method": "PUT", "url": "Patient/patient-requested-cesarean-009"}
    },
    {
      "resource": {
        "resourceType": "Encounter",
        "id": "patient-requested-enc-009",
        "status": "finished",
        "class": {"system": "http://terminology.hl7.org/CodeSystem/v3-ActCode", "code": "IMP"},
        "subject": {"reference": "Patient/patient-requested-cesarean-009"},
        "period": {"start": "2025-12-03T09:00:00Z", "end": "2025-12-06T11:00:00Z"}
      },
      "request": {"method": "PUT", "url": "Encounter/patient-requested-enc-009"}
    },
    {
      "resource": {
        "resourceType": "Condition",
        "id": "patient-requested-cond-009",
        "code": {"coding": [{"system": "http://hl7.org/fhir/sid/icd-10-cm", "code": "O82.8", "display": "其他剖腹產"}]},
        "subject": {"reference": "Patient/patient-requested-cesarean-009"},
        "encounter": {"reference": "Encounter/patient-requested-enc-009"}
      },
      "request": {"method": "PUT", "url": "Condition/patient-requested-cond-009"}
    },
    {
      "resource": {
        "resourceType": "Procedure",
        "id": "patient-requested-proc-009",
        "status": "completed",
        "code": {"coding": [{"system": "urn:oid:2.16.886.101.20003.20014", "code": "80402C", "display": "剖腹生產"}]},
        "subject": {"reference": "Patient/patient-requested-cesarean-009"},
        "encounter": {"reference": "Encounter/patient-requested-enc-009"},
        "performedDateTime": "2025-12-04T10:30:00Z"
      },
      "request": {"method": "PUT", "url": "Procedure/patient-requested-proc-009"}
    },
    {
      "resource": {
        "resourceType": "Patient",
        "id": "patient-requested-cesarean-010",
        "gender": "female",
        "birthDate": "1989-07-05"
      },
      "request": {"method": "PUT", "url": "Patient/patient-requested-cesarean-010"}
    },
    {
      "resource": {
        "resourceType": "Encounter",
        "id": "patient-requested-enc-010",
        "status": "finished",
        "class": {"system": "http://terminology.hl7.org/CodeSystem/v3-ActCode", "code": "IMP"},
        "subject": {"reference": "Patient/patient-requested-cesarean-010"},
        "period": {"start": "2025-12-08T08:00:00Z", "end": "2025-12-11T10:00:00Z"}
      },
      "request": {"method": "PUT", "url": "Encounter/patient-requested-enc-010"}
    },
    {
      "resource": {
        "resourceType": "Condition",
        "id": "patient-requested-cond-010",
        "code": {"coding": [{"system": "http://hl7.org/fhir/sid/icd-10-cm", "code": "O82.8", "display": "其他剖腹產"}]},
        "subject": {"reference": "Patient/patient-requested-cesarean-010"},
        "encounter": {"reference": "Encounter/patient-requested-enc-010"}
      },
      "request": {"method": "PUT", "url": "Condition/patient-requested-cond-010"}
    },
    {
      "resource": {
        "resourceType": "Procedure",
        "id": "patient-requested-proc-010",
        "status": "completed",
        "code": {"coding": [{"system": "urn:oid:2.16.886.101.20003.20014", "code": "80402C", "display": "剖腹生產"}]},
        "subject": {"reference": "Patient/patient-requested-cesarean-010"},
        "encounter": {"reference": "Encounter/patient-requested-enc-010"},
        "performedDateTime": "2025-12-09T11:45:00Z"
      },
      "request": {"method": "PUT", "url": "Procedure/patient-requested-proc-010"}
    },
    {
      "resource": {
        "resourceType": "Patient",
        "id": "patient-requested-cesarean-011",
        "gender": "female",
        "birthDate": "1993-09-12"
      },
      "request": {"method": "PUT", "url": "Patient/patient-requested-cesarean-011"}
    },
    {
      "resource": {
        "resourceType": "Encounter",
        "id": "patient-requested-enc-011",
        "status": "finished",
        "class": {"system": "http://terminology.hl7.org/CodeSystem/v3-ActCode", "code": "IMP"},
        "subject": {"reference": "Patient/patient-requested-cesarean-011"},
        "period": {"start": "2025-10-28T09:30:00Z", "end": "2025-10-31T11:30:00Z"}
      },
      "request": {"method": "PUT", "url": "Encounter/patient-requested-enc-011"}
    },
    {
      "resource": {
        "resourceType": "Condition",
        "id": "patient-requested-cond-011",
        "code": {"coding": [{"system": "http://hl7.org/fhir/sid/icd-10-cm", "code": "O82.8", "display": "其他剖腹產"}]},
        "subject": {"reference": "Patient/patient-requested-cesarean-011"},
        "encounter": {"reference": "Encounter/patient-requested-enc-011"}
      },
      "request": {"method": "PUT", "url": "Condition/patient-requested-cond-011"}
    },
    {
      "resource": {
        "resourceType": "Procedure",
        "id": "patient-requested-proc-011",
        "status": "completed",
        "code": {"coding": [{"system": "urn:oid:2.16.886.101.20003.20014", "code": "80402C", "display": "剖腹生產"}]},
        "subject": {"reference": "Patient/patient-requested-cesarean-011"},
        "encounter": {"reference": "Encounter/patient-requested-enc-011"},
        "performedDateTime": "2025-10-29T13:15:00Z"
      },
      "request": {"method": "PUT", "url": "Procedure/patient-requested-proc-011"}
    }
  ]
}
