{
  "resourceType": "Bundle",
  "type": "transaction",
  "entry": [
    {
      "request": {
        "method": "PUT",
        "url": "Organization/org-hospital-cross-antithromb-g"
      },
      "resource": {
        "resourceType": "Organization",
        "id": "org-hospital-cross-antithromb-g",
        "name": "跨院抗血栓_庚醫院",
        "type": [
          {
            "coding": [
              {
                "system": "http://terminology.hl7.org/CodeSystem/organization-type",
                "code": "prov",
                "display": "Healthcare Provider"
              }
            ]
          }
        ]
      }
    },
    {
      "request": {
        "method": "PUT",
        "url": "Organization/org-hospital-cross-antithromb-h"
      },
      "resource": {
        "resourceType": "Organization",
        "id": "org-hospital-cross-antithromb-h",
        "name": "跨院抗血栓_辛醫院",
        "type": [
          {
            "coding": [
              {
                "system": "http://terminology.hl7.org/CodeSystem/organization-type",
                "code": "prov",
                "display": "Healthcare Provider"
              }
            ]
          }
        ]
      }
    },
    {
      "request": {
        "method": "PUT",
        "url": "Patient/patient-antithromb-cross-new-001"
      },
      "resource": {
        "resourceType": "Patient",
        "id": "patient-antithromb-cross-new-001",
        "identifier": [
          {
            "system": "http://www.moi.gov.tw",
            "value": "ANTITHROMB-CROSS-NEW-001"
          }
        ],
        "name": [
          {
            "text": "跨院抗血栓新001",
            "family": "跨院",
            "given": ["抗血栓新001"]
          }
        ],
        "gender": "male",
        "birthDate": "1955-06-12"
      }
    },
    {
      "request": {
        "method": "PUT",
        "url": "Patient/patient-antithromb-cross-new-002"
      },
      "resource": {
        "resourceType": "Patient",
        "id": "patient-antithromb-cross-new-002",
        "identifier": [
          {
            "system": "http://www.moi.gov.tw",
            "value": "ANTITHROMB-CROSS-NEW-002"
          }
        ],
        "name": [
          {
            "text": "跨院抗血栓新002",
            "family": "跨院",
            "given": ["抗血栓新002"]
          }
        ],
        "gender": "female",
        "birthDate": "1960-03-28"
      }
    },
    {
      "request": {
        "method": "PUT",
        "url": "Patient/patient-antithromb-cross-new-003"
      },
      "resource": {
        "resourceType": "Patient",
        "id": "patient-antithromb-cross-new-003",
        "identifier": [
          {
            "system": "http://www.moi.gov.tw",
            "value": "ANTITHROMB-CROSS-NEW-003"
          }
        ],
        "name": [
          {
            "text": "跨院抗血栓新003",
            "family": "跨院",
            "given": ["抗血栓新003"]
          }
        ],
        "gender": "male",
        "birthDate": "1958-11-05"
      }
    },
    {
      "request": {
        "method": "PUT",
        "url": "Patient/patient-antithromb-cross-new-004"
      },
      "resource": {
        "resourceType": "Patient",
        "id": "patient-antithromb-cross-new-004",
        "identifier": [
          {
            "system": "http://www.moi.gov.tw",
            "value": "ANTITHROMB-CROSS-NEW-004"
          }
        ],
        "name": [
          {
            "text": "跨院抗血栓新004",
            "family": "跨院",
            "given": ["抗血栓新004"]
          }
        ],
        "gender": "female",
        "birthDate": "1962-07-20"
      }
    },
    {
      "request": {
        "method": "PUT",
        "url": "Encounter/encounter-antithromb-cross-new-001-g"
      },
      "resource": {
        "resourceType": "Encounter",
        "id": "encounter-antithromb-cross-new-001-g",
        "status": "finished",
        "class": {
          "system": "http://terminology.hl7.org/CodeSystem/v3-ActCode",
          "code": "AMB",
          "display": "ambulatory"
        },
        "subject": {
          "reference": "Patient/patient-antithromb-cross-new-001"
        },
        "serviceProvider": {
          "reference": "Organization/org-hospital-cross-antithromb-g"
        },
        "period": {
          "start": "2025-10-03T09:00:00+08:00",
          "end": "2025-10-03T09:30:00+08:00"
        }
      }
    },
    {
      "request": {
        "method": "PUT",
        "url": "MedicationRequest/medreq-antithromb-cross-new-001-g"
      },
      "resource": {
        "resourceType": "MedicationRequest",
        "id": "medreq-antithromb-cross-new-001-g",
        "status": "completed",
        "intent": "order",
        "medicationCodeableConcept": {
          "coding": [
            {
              "system": "http://www.whocc.no/atc",
              "code": "B01AA03",
              "display": "Warfarin"
            }
          ],
          "text": "Warfarin 5mg"
        },
        "subject": {
          "reference": "Patient/patient-antithromb-cross-new-001"
        },
        "encounter": {
          "reference": "Encounter/encounter-antithromb-cross-new-001-g"
        },
        "authoredOn": "2025-10-03T09:00:00+08:00",
        "dispenseRequest": {
          "validityPeriod": {
            "start": "2025-10-03",
            "end": "2025-10-31"
          },
          "quantity": {
            "value": 28,
            "unit": "tablet"
          }
        }
      }
    },
    {
      "request": {
        "method": "PUT",
        "url": "Encounter/encounter-antithromb-cross-new-001-h"
      },
      "resource": {
        "resourceType": "Encounter",
        "id": "encounter-antithromb-cross-new-001-h",
        "status": "finished",
        "class": {
          "system": "http://terminology.hl7.org/CodeSystem/v3-ActCode",
          "code": "AMB",
          "display": "ambulatory"
        },
        "subject": {
          "reference": "Patient/patient-antithromb-cross-new-001"
        },
        "serviceProvider": {
          "reference": "Organization/org-hospital-cross-antithromb-h"
        },
        "period": {
          "start": "2025-10-12T14:00:00+08:00",
          "end": "2025-10-12T14:30:00+08:00"
        }
      }
    },
    {
      "request": {
        "method": "PUT",
        "url": "MedicationRequest/medreq-antithromb-cross-new-001-h"
      },
      "resource": {
        "resourceType": "MedicationRequest",
        "id": "medreq-antithromb-cross-new-001-h",
        "status": "completed",
        "intent": "order",
        "medicationCodeableConcept": {
          "coding": [
            {
              "system": "http://www.whocc.no/atc",
              "code": "B01AC06",
              "display": "Aspirin"
            }
          ],
          "text": "Aspirin 100mg"
        },
        "subject": {
          "reference": "Patient/patient-antithromb-cross-new-001"
        },
        "encounter": {
          "reference": "Encounter/encounter-antithromb-cross-new-001-h"
        },
        "authoredOn": "2025-10-12T14:00:00+08:00",
        "dispenseRequest": {
          "validityPeriod": {
            "start": "2025-10-12",
            "end": "2025-11-09"
          },
          "quantity": {
            "value": 28,
            "unit": "tablet"
          }
        }
      }
    },
    {
      "request": {
        "method": "PUT",
        "url": "Encounter/encounter-antithromb-cross-new-002-g"
      },
      "resource": {
        "resourceType": "Encounter",
        "id": "encounter-antithromb-cross-new-002-g",
        "status": "finished",
        "class": {
          "system": "http://terminology.hl7.org/CodeSystem/v3-ActCode",
          "code": "AMB",
          "display": "ambulatory"
        },
        "subject": {
          "reference": "Patient/patient-antithromb-cross-new-002"
        },
        "serviceProvider": {
          "reference": "Organization/org-hospital-cross-antithromb-g"
        },
        "period": {
          "start": "2025-11-06T10:00:00+08:00",
          "end": "2025-11-06T10:30:00+08:00"
        }
      }
    },
    {
      "request": {
        "method": "PUT",
        "url": "MedicationRequest/medreq-antithromb-cross-new-002-g"
      },
      "resource": {
        "resourceType": "MedicationRequest",
        "id": "medreq-antithromb-cross-new-002-g",
        "status": "completed",
        "intent": "order",
        "medicationCodeableConcept": {
          "coding": [
            {
              "system": "http://www.whocc.no/atc",
              "code": "B01AC04",
              "display": "Clopidogrel"
            }
          ],
          "text": "Clopidogrel 75mg"
        },
        "subject": {
          "reference": "Patient/patient-antithromb-cross-new-002"
        },
        "encounter": {
          "reference": "Encounter/encounter-antithromb-cross-new-002-g"
        },
        "authoredOn": "2025-11-06T10:00:00+08:00",
        "dispenseRequest": {
          "validityPeriod": {
            "start": "2025-11-06",
            "end": "2025-12-04"
          },
          "quantity": {
            "value": 28,
            "unit": "tablet"
          }
        }
      }
    },
    {
      "request": {
        "method": "PUT",
        "url": "Encounter/encounter-antithromb-cross-new-002-h"
      },
      "resource": {
        "resourceType": "Encounter",
        "id": "encounter-antithromb-cross-new-002-h",
        "status": "finished",
        "class": {
          "system": "http://terminology.hl7.org/CodeSystem/v3-ActCode",
          "code": "AMB",
          "display": "ambulatory"
        },
        "subject": {
          "reference": "Patient/patient-antithromb-cross-new-002"
        },
        "serviceProvider": {
          "reference": "Organization/org-hospital-cross-antithromb-h"
        },
        "period": {
          "start": "2025-11-15T15:00:00+08:00",
          "end": "2025-11-15T15:30:00+08:00"
        }
      }
    },
    {
      "request": {
        "method": "PUT",
        "url": "MedicationRequest/medreq-antithromb-cross-new-002-h"
      },
      "resource": {
        "resourceType": "MedicationRequest",
        "id": "medreq-antithromb-cross-new-002-h",
        "status": "completed",
        "intent": "order",
        "medicationCodeableConcept": {
          "coding": [
            {
              "system": "http://www.whocc.no/atc",
              "code": "B01AF01",
              "display": "Rivaroxaban"
            }
          ],
          "text": "Rivaroxaban 20mg"
        },
        "subject": {
          "reference": "Patient/patient-antithromb-cross-new-002"
        },
        "encounter": {
          "reference": "Encounter/encounter-antithromb-cross-new-002-h"
        },
        "authoredOn": "2025-11-15T15:00:00+08:00",
        "dispenseRequest": {
          "validityPeriod": {
            "start": "2025-11-15",
            "end": "2025-12-13"
          },
          "quantity": {
            "value": 28,
            "unit": "tablet"
          }
        }
      }
    },
    {
      "request": {
        "method": "PUT",
        "url": "Encounter/encounter-antithromb-cross-new-003-g"
      },
      "resource": {
        "resourceType": "Encounter",
        "id": "encounter-antithromb-cross-new-003-g",
        "status": "finished",
        "class": {
          "system": "http://terminology.hl7.org/CodeSystem/v3-ActCode",
          "code": "AMB",
          "display": "ambulatory"
        },
        "subject": {
          "reference": "Patient/patient-antithromb-cross-new-003"
        },
        "serviceProvider": {
          "reference": "Organization/org-hospital-cross-antithromb-g"
        },
        "period": {
          "start": "2025-12-02T09:30:00+08:00",
          "end": "2025-12-02T10:00:00+08:00"
        }
      }
    },
    {
      "request": {
        "method": "PUT",
        "url": "MedicationRequest/medreq-antithromb-cross-new-003-g"
      },
      "resource": {
        "resourceType": "MedicationRequest",
        "id": "medreq-antithromb-cross-new-003-g",
        "status": "completed",
        "intent": "order",
        "medicationCodeableConcept": {
          "coding": [
            {
              "system": "http://www.whocc.no/atc",
              "code": "B01AE07",
              "display": "Dabigatran"
            }
          ],
          "text": "Dabigatran 150mg"
        },
        "subject": {
          "reference": "Patient/patient-antithromb-cross-new-003"
        },
        "encounter": {
          "reference": "Encounter/encounter-antithromb-cross-new-003-g"
        },
        "authoredOn": "2025-12-02T09:30:00+08:00",
        "dispenseRequest": {
          "validityPeriod": {
            "start": "2025-12-02",
            "end": "2025-12-30"
          },
          "quantity": {
            "value": 28,
            "unit": "tablet"
          }
        }
      }
    },
    {
      "request": {
        "method": "PUT",
        "url": "Encounter/encounter-antithromb-cross-new-003-h"
      },
      "resource": {
        "resourceType": "Encounter",
        "id": "encounter-antithromb-cross-new-003-h",
        "status": "finished",
        "class": {
          "system": "http://terminology.hl7.org/CodeSystem/v3-ActCode",
          "code": "AMB",
          "display": "ambulatory"
        },
        "subject": {
          "reference": "Patient/patient-antithromb-cross-new-003"
        },
        "serviceProvider": {
          "reference": "Organization/org-hospital-cross-antithromb-h"
        },
        "period": {
          "start": "2025-12-09T14:30:00+08:00",
          "end": "2025-12-09T15:00:00+08:00"
        }
      }
    },
    {
      "request": {
        "method": "PUT",
        "url": "MedicationRequest/medreq-antithromb-cross-new-003-h"
      },
      "resource": {
        "resourceType": "MedicationRequest",
        "id": "medreq-antithromb-cross-new-003-h",
        "status": "completed",
        "intent": "order",
        "medicationCodeableConcept": {
          "coding": [
            {
              "system": "http://www.whocc.no/atc",
              "code": "B01AF02",
              "display": "Apixaban"
            }
          ],
          "text": "Apixaban 5mg"
        },
        "subject": {
          "reference": "Patient/patient-antithromb-cross-new-003"
        },
        "encounter": {
          "reference": "Encounter/encounter-antithromb-cross-new-003-h"
        },
        "authoredOn": "2025-12-09T14:30:00+08:00",
        "dispenseRequest": {
          "validityPeriod": {
            "start": "2025-12-09",
            "end": "2026-01-06"
          },
          "quantity": {
            "value": 28,
            "unit": "tablet"
          }
        }
      }
    },
    {
      "request": {
        "method": "PUT",
        "url": "Encounter/encounter-antithromb-cross-new-004-g"
      },
      "resource": {
        "resourceType": "Encounter",
        "id": "encounter-antithromb-cross-new-004-g",
        "status": "finished",
        "class": {
          "system": "http://terminology.hl7.org/CodeSystem/v3-ActCode",
          "code": "AMB",
          "display": "ambulatory"
        },
        "subject": {
          "reference": "Patient/patient-antithromb-cross-new-004"
        },
        "serviceProvider": {
          "reference": "Organization/org-hospital-cross-antithromb-g"
        },
        "period": {
          "start": "2025-10-20T11:00:00+08:00",
          "end": "2025-10-20T11:30:00+08:00"
        }
      }
    },
    {
      "request": {
        "method": "PUT",
        "url": "MedicationRequest/medreq-antithromb-cross-new-004-g"
      },
      "resource": {
        "resourceType": "MedicationRequest",
        "id": "medreq-antithromb-cross-new-004-g",
        "status": "completed",
        "intent": "order",
        "medicationCodeableConcept": {
          "coding": [
            {
              "system": "http://www.whocc.no/atc",
              "code": "B01AC30",
              "display": "Ticagrelor"
            }
          ],
          "text": "Ticagrelor 90mg"
        },
        "subject": {
          "reference": "Patient/patient-antithromb-cross-new-004"
        },
        "encounter": {
          "reference": "Encounter/encounter-antithromb-cross-new-004-g"
        },
        "authoredOn": "2025-10-20T11:00:00+08:00",
        "dispenseRequest": {
          "validityPeriod": {
            "start": "2025-10-20",
            "end": "2025-11-17"
          },
          "quantity": {
            "value": 56,
            "unit": "tablet"
          }
        }
      }
    },
    {
      "request": {
        "method": "PUT",
        "url": "Encounter/encounter-antithromb-cross-new-004-h"
      },
      "resource": {
        "resourceType": "Encounter",
        "id": "encounter-antithromb-cross-new-004-h",
        "status": "finished",
        "class": {
          "system": "http://terminology.hl7.org/CodeSystem/v3-ActCode",
          "code": "AMB",
          "display": "ambulatory"
        },
        "subject": {
          "reference": "Patient/patient-antithromb-cross-new-004"
        },
        "serviceProvider": {
          "reference": "Organization/org-hospital-cross-antithromb-h"
        },
        "period": {
          "start": "2025-10-28T16:00:00+08:00",
          "end": "2025-10-28T16:30:00+08:00"
        }
      }
    },
    {
      "request": {
        "method": "PUT",
        "url": "MedicationRequest/medreq-antithromb-cross-new-004-h"
      },
      "resource": {
        "resourceType": "MedicationRequest",
        "id": "medreq-antithromb-cross-new-004-h",
        "status": "completed",
        "intent": "order",
        "medicationCodeableConcept": {
          "coding": [
            {
              "system": "http://www.whocc.no/atc",
              "code": "B01AE06",
              "display": "Edoxaban"
            }
          ],
          "text": "Edoxaban 60mg"
        },
        "subject": {
          "reference": "Patient/patient-antithromb-cross-new-004"
        },
        "encounter": {
          "reference": "Encounter/encounter-antithromb-cross-new-004-h"
        },
        "authoredOn": "2025-10-28T16:00:00+08:00",
        "dispenseRequest": {
          "validityPeriod": {
            "start": "2025-10-28",
            "end": "2025-11-25"
          },
          "quantity": {
            "value": 28,
            "unit": "tablet"
          }
        }
      }
    }
  ]
}
