{
  "resourceType": "Bundle",
  "type": "transaction",
  "entry": [
    {
      "fullUrl": "urn:uuid:eswl-patient-001",
      "resource": {
        "resourceType": "Patient",
        "id": "eswl-patient-001",
        "identifier": [{"system": "http://hospital.example.org/patients", "value": "ESWL-P001"}],
        "name": [{"family": "王", "given": ["結石一"]}],
        "gender": "male",
        "birthDate": "1968-03-15"
      },
      "request": {"method": "PUT", "url": "Patient/eswl-patient-001"}
    },
    {
      "fullUrl": "urn:uuid:eswl-proc-001-1",
      "resource": {
        "resourceType": "Procedure",
        "id": "eswl-proc-001-1",
        "status": "completed",
        "code": {
          "coding": [{"system": "http://snomed.info/sct", "code": "80146002", "display": "Extracorporeal shockwave lithotripsy"}]
        },
        "subject": {"reference": "Patient/eswl-patient-001"},
        "performedDateTime": "2025-10-05T09:00:00Z"
      },
      "request": {"method": "PUT", "url": "Procedure/eswl-proc-001-1"}
    },
    {
      "fullUrl": "urn:uuid:eswl-proc-001-2",
      "resource": {
        "resourceType": "Procedure",
        "id": "eswl-proc-001-2",
        "status": "completed",
        "code": {
          "coding": [{"system": "http://snomed.info/sct", "code": "80146002", "display": "Extracorporeal shockwave lithotripsy"}]
        },
        "subject": {"reference": "Patient/eswl-patient-019"},
        "performedDateTime": "2025-10-19T10:00:00Z"
      },
      "request": {"method": "PUT", "url": "Procedure/eswl-proc-001-2"}
    },
    {
      "fullUrl": "urn:uuid:eswl-patient-002",
      "resource": {
        "resourceType": "Patient",
        "id": "eswl-patient-002",
        "identifier": [{"system": "http://hospital.example.org/patients", "value": "ESWL-P002"}],
        "name": [{"family": "李", "given": ["結石二"]}],
        "gender": "female",
        "birthDate": "1972-08-22"
      },
      "request": {"method": "PUT", "url": "Patient/eswl-patient-002"}
    },
    {
      "fullUrl": "urn:uuid:eswl-proc-002",
      "resource": {
        "resourceType": "Procedure",
        "id": "eswl-proc-002",
        "status": "completed",
        "code": {
          "coding": [{"system": "http://snomed.info/sct", "code": "80146002", "display": "Extracorporeal shockwave lithotripsy"}]
        },
        "subject": {"reference": "Patient/eswl-patient-002"},
        "performedDateTime": "2025-10-12T11:00:00Z"
      },
      "request": {"method": "PUT", "url": "Procedure/eswl-proc-002"}
    },
    {
      "fullUrl": "urn:uuid:eswl-patient-003",
      "resource": {
        "resourceType": "Patient",
        "id": "eswl-patient-003",
        "identifier": [{"system": "http://hospital.example.org/patients", "value": "ESWL-P003"}],
        "name": [{"family": "張", "given": ["結石三"]}],
        "gender": "male",
        "birthDate": "1965-12-05"
      },
      "request": {"method": "PUT", "url": "Patient/eswl-patient-003"}
    },
    {
      "fullUrl": "urn:uuid:eswl-proc-003-1",
      "resource": {
        "resourceType": "Procedure",
        "id": "eswl-proc-003-1",
        "status": "completed",
        "code": {
          "coding": [{"system": "http://snomed.info/sct", "code": "80146002", "display": "Extracorporeal shockwave lithotripsy"}]
        },
        "subject": {"reference": "Patient/eswl-patient-003"},
        "performedDateTime": "2025-10-20T14:00:00Z"
      },
      "request": {"method": "PUT", "url": "Procedure/eswl-proc-003-1"}
    },
    {
      "fullUrl": "urn:uuid:eswl-proc-003-2",
      "resource": {
        "resourceType": "Procedure",
        "id": "eswl-proc-003-2",
        "status": "completed",
        "code": {
          "coding": [{"system": "http://snomed.info/sct", "code": "80146002", "display": "Extracorporeal shockwave lithotripsy"}]
        },
        "subject": {"reference": "Patient/eswl-patient-018"},
        "performedDateTime": "2025-11-03T09:30:00Z"
      },
      "request": {"method": "PUT", "url": "Procedure/eswl-proc-003-2"}
    },
    {
      "fullUrl": "urn:uuid:eswl-proc-003-3",
      "resource": {
        "resourceType": "Procedure",
        "id": "eswl-proc-003-3",
        "status": "completed",
        "code": {
          "coding": [{"system": "http://snomed.info/sct", "code": "80146002", "display": "Extracorporeal shockwave lithotripsy"}]
        },
        "subject": {"reference": "Patient/eswl-patient-017"},
        "performedDateTime": "2025-11-17T10:00:00Z"
      },
      "request": {"method": "PUT", "url": "Procedure/eswl-proc-003-3"}
    },
    {
      "fullUrl": "urn:uuid:eswl-patient-004",
      "resource": {
        "resourceType": "Patient",
        "id": "eswl-patient-004",
        "identifier": [{"system": "http://hospital.example.org/patients", "value": "ESWL-P004"}],
        "name": [{"family": "陳", "given": ["結石四"]}],
        "gender": "female",
        "birthDate": "1970-06-18"
      },
      "request": {"method": "PUT", "url": "Patient/eswl-patient-004"}
    },
    {
      "fullUrl": "urn:uuid:eswl-proc-004",
      "resource": {
        "resourceType": "Procedure",
        "id": "eswl-proc-004",
        "status": "completed",
        "code": {
          "coding": [{"system": "http://snomed.info/sct", "code": "80146002", "display": "Extracorporeal shockwave lithotripsy"}]
        },
        "subject": {"reference": "Patient/eswl-patient-004"},
        "performedDateTime": "2025-11-05T13:00:00Z"
      },
      "request": {"method": "PUT", "url": "Procedure/eswl-proc-004"}
    },
    {
      "fullUrl": "urn:uuid:eswl-patient-005",
      "resource": {
        "resourceType": "Patient",
        "id": "eswl-patient-005",
        "identifier": [{"system": "http://hospital.example.org/patients", "value": "ESWL-P005"}],
        "name": [{"family": "林", "given": ["結石五"]}],
        "gender": "male",
        "birthDate": "1963-04-30"
      },
      "request": {"method": "PUT", "url": "Patient/eswl-patient-005"}
    },
    {
      "fullUrl": "urn:uuid:eswl-proc-005-1",
      "resource": {
        "resourceType": "Procedure",
        "id": "eswl-proc-005-1",
        "status": "completed",
        "code": {
          "coding": [{"system": "http://snomed.info/sct", "code": "80146002", "display": "Extracorporeal shockwave lithotripsy"}]
        },
        "subject": {"reference": "Patient/eswl-patient-005"},
        "performedDateTime": "2025-11-10T08:30:00Z"
      },
      "request": {"method": "PUT", "url": "Procedure/eswl-proc-005-1"}
    },
    {
      "fullUrl": "urn:uuid:eswl-proc-005-2",
      "resource": {
        "resourceType": "Procedure",
        "id": "eswl-proc-005-2",
        "status": "completed",
        "code": {
          "coding": [{"system": "http://snomed.info/sct", "code": "80146002", "display": "Extracorporeal shockwave lithotripsy"}]
        },
        "subject": {"reference": "Patient/eswl-patient-016"},
        "performedDateTime": "2025-11-24T14:00:00Z"
      },
      "request": {"method": "PUT", "url": "Procedure/eswl-proc-005-2"}
    },
    {
      "fullUrl": "urn:uuid:eswl-patient-006",
      "resource": {
        "resourceType": "Patient",
        "id": "eswl-patient-006",
        "identifier": [{"system": "http://hospital.example.org/patients", "value": "ESWL-P006"}],
        "name": [{"family": "黃", "given": ["結石六"]}],
        "gender": "female",
        "birthDate": "1975-09-14"
      },
      "request": {"method": "PUT", "url": "Patient/eswl-patient-006"}
    },
    {
      "fullUrl": "urn:uuid:eswl-proc-006",
      "resource": {
        "resourceType": "Procedure",
        "id": "eswl-proc-006",
        "status": "completed",
        "code": {
          "coding": [{"system": "http://snomed.info/sct", "code": "80146002", "display": "Extracorporeal shockwave lithotripsy"}]
        },
        "subject": {"reference": "Patient/eswl-patient-006"},
        "performedDateTime": "2025-11-18T10:30:00Z"
      },
      "request": {"method": "PUT", "url": "Procedure/eswl-proc-006"}
    },
    {
      "fullUrl": "urn:uuid:eswl-patient-007",
      "resource": {
        "resourceType": "Patient",
        "id": "eswl-patient-007",
        "identifier": [{"system": "http://hospital.example.org/patients", "value": "ESWL-P007"}],
        "name": [{"family": "吳", "given": ["結石七"]}],
        "gender": "male",
        "birthDate": "1958-02-08"
      },
      "request": {"method": "PUT", "url": "Patient/eswl-patient-007"}
    },
    {
      "fullUrl": "urn:uuid:eswl-proc-007",
      "resource": {
        "resourceType": "Procedure",
        "id": "eswl-proc-007",
        "status": "completed",
        "code": {
          "coding": [{"system": "http://snomed.info/sct", "code": "80146002", "display": "Extracorporeal shockwave lithotripsy"}]
        },
        "subject": {"reference": "Patient/eswl-patient-007"},
        "performedDateTime": "2025-11-22T15:00:00Z"
      },
      "request": {"method": "PUT", "url": "Procedure/eswl-proc-007"}
    },
    {
      "fullUrl": "urn:uuid:eswl-patient-008",
      "resource": {
        "resourceType": "Patient",
        "id": "eswl-patient-008",
        "identifier": [{"system": "http://hospital.example.org/patients", "value": "ESWL-P008"}],
        "name": [{"family": "周", "given": ["結石八"]}],
        "gender": "female",
        "birthDate": "1969-11-20"
      },
      "request": {"method": "PUT", "url": "Patient/eswl-patient-008"}
    },
    {
      "fullUrl": "urn:uuid:eswl-proc-008-1",
      "resource": {
        "resourceType": "Procedure",
        "id": "eswl-proc-008-1",
        "status": "completed",
        "code": {
          "coding": [{"system": "http://snomed.info/sct", "code": "80146002", "display": "Extracorporeal shockwave lithotripsy"}]
        },
        "subject": {"reference": "Patient/eswl-patient-020"},
        "performedDateTime": "2025-12-01T09:00:00Z"
      },
      "request": {"method": "PUT", "url": "Procedure/eswl-proc-008-1"}
    },
    {
      "fullUrl": "urn:uuid:eswl-proc-008-2",
      "resource": {
        "resourceType": "Procedure",
        "id": "eswl-proc-008-2",
        "status": "completed",
        "code": {
          "coding": [{"system": "http://snomed.info/sct", "code": "80146002", "display": "Extracorporeal shockwave lithotripsy"}]
        },
        "subject": {"reference": "Patient/eswl-patient-014"},
        "performedDateTime": "2025-12-09T11:00:00Z"
      },
      "request": {"method": "PUT", "url": "Procedure/eswl-proc-008-2"}
    },
    {
      "fullUrl": "urn:uuid:eswl-patient-009",
      "resource": {
        "resourceType": "Patient",
        "id": "eswl-patient-009",
        "identifier": [{"system": "http://hospital.example.org/patients", "value": "ESWL-P009"}],
        "name": [{"family": "鄭", "given": ["結石九"]}],
        "gender": "male",
        "birthDate": "1971-07-25"
      },
      "request": {"method": "PUT", "url": "Patient/eswl-patient-009"}
    },
    {
      "fullUrl": "urn:uuid:eswl-proc-009",
      "resource": {
        "resourceType": "Procedure",
        "id": "eswl-proc-009",
        "status": "completed",
        "code": {
          "coding": [{"system": "http://snomed.info/sct", "code": "80146002", "display": "Extracorporeal shockwave lithotripsy"}]
        },
        "subject": {"reference": "Patient/eswl-patient-009"},
        "performedDateTime": "2025-12-03T13:30:00Z"
      },
      "request": {"method": "PUT", "url": "Procedure/eswl-proc-009"}
    },
    {
      "fullUrl": "urn:uuid:eswl-patient-010",
      "resource": {
        "resourceType": "Patient",
        "id": "eswl-patient-010",
        "identifier": [{"system": "http://hospital.example.org/patients", "value": "ESWL-P010"}],
        "name": [{"family": "劉", "given": ["結石十"]}],
        "gender": "female",
        "birthDate": "1966-01-12"
      },
      "request": {"method": "PUT", "url": "Patient/eswl-patient-010"}
    },
    {
      "fullUrl": "urn:uuid:eswl-proc-010",
      "resource": {
        "resourceType": "Procedure",
        "id": "eswl-proc-010",
        "status": "completed",
        "code": {
          "coding": [{"system": "http://snomed.info/sct", "code": "80146002", "display": "Extracorporeal shockwave lithotripsy"}]
        },
        "subject": {"reference": "Patient/eswl-patient-010"},
        "performedDateTime": "2025-12-05T10:00:00Z"
      },
      "request": {"method": "PUT", "url": "Procedure/eswl-proc-010"}
    },
    {
      "fullUrl": "urn:uuid:eswl-patient-011",
      "resource": {
        "resourceType": "Patient",
        "id": "eswl-patient-011",
        "identifier": [{"system": "http://hospital.example.org/patients", "value": "ESWL-P011"}],
        "name": [{"family": "許", "given": ["結石十一"]}],
        "gender": "male",
        "birthDate": "1973-05-17"
      },
      "request": {"method": "PUT", "url": "Patient/eswl-patient-011"}
    },
    {
      "fullUrl": "urn:uuid:eswl-proc-011-1",
      "resource": {
        "resourceType": "Procedure",
        "id": "eswl-proc-011-1",
        "status": "completed",
        "code": {
          "coding": [{"system": "http://snomed.info/sct", "code": "80146002", "display": "Extracorporeal shockwave lithotripsy"}]
        },
        "subject": {"reference": "Patient/eswl-patient-021"},
        "performedDateTime": "2025-10-08T08:00:00Z"
      },
      "request": {"method": "PUT", "url": "Procedure/eswl-proc-011-1"}
    },
    {
      "fullUrl": "urn:uuid:eswl-proc-011-2",
      "resource": {
        "resourceType": "Procedure",
        "id": "eswl-proc-011-2",
        "status": "completed",
        "code": {
          "coding": [{"system": "http://snomed.info/sct", "code": "80146002", "display": "Extracorporeal shockwave lithotripsy"}]
        },
        "subject": {"reference": "Patient/eswl-patient-015"},
        "performedDateTime": "2025-10-22T14:30:00Z"
      },
      "request": {"method": "PUT", "url": "Procedure/eswl-proc-011-2"}
    },
    {
      "fullUrl": "urn:uuid:eswl-patient-012",
      "resource": {
        "resourceType": "Patient",
        "id": "eswl-patient-012",
        "identifier": [{"system": "http://hospital.example.org/patients", "value": "ESWL-P012"}],
        "name": [{"family": "謝", "given": ["結石十二"]}],
        "gender": "female",
        "birthDate": "1967-08-30"
      },
      "request": {"method": "PUT", "url": "Patient/eswl-patient-012"}
    },
    {
      "fullUrl": "urn:uuid:eswl-proc-012",
      "resource": {
        "resourceType": "Procedure",
        "id": "eswl-proc-012",
        "status": "completed",
        "code": {
          "coding": [{"system": "http://snomed.info/sct", "code": "80146002", "display": "Extracorporeal shockwave lithotripsy"}]
        },
        "subject": {"reference": "Patient/eswl-patient-012"},
        "performedDateTime": "2025-11-28T11:30:00Z"
      },
      "request": {"method": "PUT", "url": "Procedure/eswl-proc-012"}
    },
    {
      "fullUrl": "urn:uuid:eswl-patient-013",
      "resource": {
        "resourceType": "Patient",
        "id": "eswl-patient-013",
        "identifier": [{"system": "http://hospital.example.org/patients", "value": "ESWL-P013"}],
        "name": [{"family": "蔡", "given": ["結石十三"]}],
        "gender": "male",
        "birthDate": "1974-12-03"
      },
      "request": {"method": "PUT", "url": "Patient/eswl-patient-013"}
    },
    {
      "fullUrl": "urn:uuid:eswl-proc-013",
      "resource": {
        "resourceType": "Procedure",
        "id": "eswl-proc-013",
        "status": "completed",
        "code": {
          "coding": [{"system": "http://snomed.info/sct", "code": "80146002", "display": "Extracorporeal shockwave lithotripsy"}]
        },
        "subject": {"reference": "Patient/eswl-patient-013"},
        "performedDateTime": "2025-12-07T16:00:00Z"
      },
      "request": {"method": "PUT", "url": "Procedure/eswl-proc-013"}
    },
    {
      "fullUrl": "urn:uuid:eswl-patient-014",
      "resource": {
        "resourceType": "Patient",
        "id": "eswl-patient-014",
        "identifier": [{"system": "http://hospital.example.org/patients", "value": "ESWL-P014"}],
        "name": [{"family": "楊", "given": ["結石十四"]}],
        "gender": "female",
        "birthDate": "1976-03-22"
      },
      "request": {"method": "PUT", "url": "Patient/eswl-patient-014"}
    },
    {
      "fullUrl": "urn:uuid:eswl-patient-015",
      "resource": {
        "resourceType": "Patient",
        "id": "eswl-patient-015",
        "identifier": [{"system": "http://hospital.example.org/patients", "value": "ESWL-P015"}],
        "name": [{"family": "趙", "given": ["結石十五"]}],
        "gender": "male",
        "birthDate": "1964-08-10"
      },
      "request": {"method": "PUT", "url": "Patient/eswl-patient-015"}
    },
    {
      "fullUrl": "urn:uuid:eswl-patient-016",
      "resource": {
        "resourceType": "Patient",
        "id": "eswl-patient-016",
        "identifier": [{"system": "http://hospital.example.org/patients", "value": "ESWL-P016"}],
        "name": [{"family": "孫", "given": ["結石十六"]}],
        "gender": "female",
        "birthDate": "1971-11-15"
      },
      "request": {"method": "PUT", "url": "Patient/eswl-patient-016"}
    },
    {
      "fullUrl": "urn:uuid:eswl-patient-017",
      "resource": {
        "resourceType": "Patient",
        "id": "eswl-patient-017",
        "identifier": [{"system": "http://hospital.example.org/patients", "value": "ESWL-P017"}],
        "name": [{"family": "錢", "given": ["結石十七"]}],
        "gender": "male",
        "birthDate": "1969-05-28"
      },
      "request": {"method": "PUT", "url": "Patient/eswl-patient-017"}
    },
    {
      "fullUrl": "urn:uuid:eswl-patient-018",
      "resource": {
        "resourceType": "Patient",
        "id": "eswl-patient-018",
        "identifier": [{"system": "http://hospital.example.org/patients", "value": "ESWL-P018"}],
        "name": [{"family": "馬", "given": ["結石十八"]}],
        "gender": "female",
        "birthDate": "1973-09-03"
      },
      "request": {"method": "PUT", "url": "Patient/eswl-patient-018"}
    },
    {
      "fullUrl": "urn:uuid:eswl-patient-019",
      "resource": {
        "resourceType": "Patient",
        "id": "eswl-patient-019",
        "identifier": [{"system": "http://hospital.example.org/patients", "value": "ESWL-P019"}],
        "name": [{"family": "朱", "given": ["結石十九"]}],
        "gender": "male",
        "birthDate": "1970-12-19"
      },
      "request": {"method": "PUT", "url": "Patient/eswl-patient-019"}
    },
    {
      "fullUrl": "urn:uuid:eswl-patient-020",
      "resource": {
        "resourceType": "Patient",
        "id": "eswl-patient-020",
        "identifier": [{"system": "http://hospital.example.org/patients", "value": "ESWL-P020"}],
        "name": [{"family": "秦", "given": ["結石二十"]}],
        "gender": "female",
        "birthDate": "1968-04-07"
      },
      "request": {"method": "PUT", "url": "Patient/eswl-patient-020"}
    },
    {
      "fullUrl": "urn:uuid:eswl-patient-021",
      "resource": {
        "resourceType": "Patient",
        "id": "eswl-patient-021",
        "identifier": [{"system": "http://hospital.example.org/patients", "value": "ESWL-P021"}],
        "name": [{"family": "尤", "given": ["結石二十一"]}],
        "gender": "male",
        "birthDate": "1975-07-14"
      },
      "request": {"method": "PUT", "url": "Patient/eswl-patient-021"}
    }
  ]
}
