{
  "resourceType": "Bundle",
  "type": "transaction",
  "entry": [
    {
      "fullUrl": "urn:uuid:patient-1",
      "resource": {
        "resourceType": "Patient",
        "id": "LIPID-P1-2025Q4",
        "gender": "male",
        "birthDate": "1960-05-15",
        "name": [
          {
            "text": "張三",
            "family": "Zhang",
            "given": ["San"]
          }
        ]
      },
      "request": {
        "method": "PUT",
        "url": "Patient/LIPID-P1-2025Q4"
      }
    },
    {
      "fullUrl": "urn:uuid:encounter-1",
      "resource": {
        "resourceType": "Encounter",
        "id": "LIPID-E1-2025Q4",
        "status": "finished",
        "class": {
          "system": "http://terminology.hl7.org/CodeSystem/v3-ActCode",
          "code": "AMB",
          "display": "ambulatory"
        },
        "subject": {
          "reference": "Patient/LIPID-P1-2025Q4"
        },
        "period": {
          "start": "2025-10-01T09:00:00+08:00",
          "end": "2025-10-01T09:30:00+08:00"
        }
      },
      "request": {
        "method": "PUT",
        "url": "Encounter/LIPID-E1-2025Q4"
      }
    },
    {
      "fullUrl": "urn:uuid:medication-1",
      "resource": {
        "resourceType": "MedicationRequest",
        "id": "LIPID-M1-2025Q4",
        "status": "completed",
        "intent": "order",
        "medicationCodeableConcept": {
          "coding": [
            {
              "system": "http://www.whocc.no/atc",
              "code": "C10AA05",
              "display": "Atorvastatin"
            }
          ],
          "text": "立普妥 Atorvastatin 10mg"
        },
        "subject": {
          "reference": "Patient/LIPID-P1-2025Q4"
        },
        "encounter": {
          "reference": "Encounter/LIPID-E1-2025Q4"
        },
        "authoredOn": "2025-10-01T09:00:00+08:00",
        "dosageInstruction": [
          {
            "timing": {
              "repeat": {
                "boundsPeriod": {
                  "start": "2025-10-01",
                  "end": "2025-10-30"
                },
                "frequency": 1,
                "period": 1,
                "periodUnit": "d"
              }
            },
            "doseAndRate": [
              {
                "doseQuantity": {
                  "value": 1,
                  "unit": "tablet"
                }
              }
            ]
          }
        ],
        "dispenseRequest": {
          "validityPeriod": {
            "start": "2025-10-01",
            "end": "2025-10-30"
          },
          "quantity": {
            "value": 30,
            "unit": "tablet"
          },
          "expectedSupplyDuration": {
            "value": 30,
            "unit": "days",
            "system": "http://unitsofmeasure.org",
            "code": "d"
          }
        }
      },
      "request": {
        "method": "PUT",
        "url": "MedicationRequest/LIPID-M1-2025Q4"
      }
    },
    {
      "fullUrl": "urn:uuid:encounter-2",
      "resource": {
        "resourceType": "Encounter",
        "id": "LIPID-E2-2025Q4",
        "status": "finished",
        "class": {
          "system": "http://terminology.hl7.org/CodeSystem/v3-ActCode",
          "code": "AMB",
          "display": "ambulatory"
        },
        "subject": {
          "reference": "Patient/LIPID-P1-2025Q4"
        },
        "period": {
          "start": "2025-10-20T10:00:00+08:00",
          "end": "2025-10-20T10:30:00+08:00"
        }
      },
      "request": {
        "method": "PUT",
        "url": "Encounter/LIPID-E2-2025Q4"
      }
    },
    {
      "fullUrl": "urn:uuid:medication-2",
      "resource": {
        "resourceType": "MedicationRequest",
        "id": "LIPID-M2-2025Q4",
        "status": "completed",
        "intent": "order",
        "medicationCodeableConcept": {
          "coding": [
            {
              "system": "http://www.whocc.no/atc",
              "code": "C10AA05",
              "display": "Atorvastatin"
            }
          ],
          "text": "立普妥 Atorvastatin 10mg"
        },
        "subject": {
          "reference": "Patient/LIPID-P1-2025Q4"
        },
        "encounter": {
          "reference": "Encounter/LIPID-E2-2025Q4"
        },
        "authoredOn": "2025-10-20T10:00:00+08:00",
        "dosageInstruction": [
          {
            "timing": {
              "repeat": {
                "boundsPeriod": {
                  "start": "2025-10-20",
                  "end": "2025-11-18"
                },
                "frequency": 1,
                "period": 1,
                "periodUnit": "d"
              }
            },
            "doseAndRate": [
              {
                "doseQuantity": {
                  "value": 1,
                  "unit": "tablet"
                }
              }
            ]
          }
        ],
        "dispenseRequest": {
          "validityPeriod": {
            "start": "2025-10-20",
            "end": "2025-11-18"
          },
          "quantity": {
            "value": 30,
            "unit": "tablet"
          },
          "expectedSupplyDuration": {
            "value": 30,
            "unit": "days",
            "system": "http://unitsofmeasure.org",
            "code": "d"
          }
        }
      },
      "request": {
        "method": "PUT",
        "url": "MedicationRequest/LIPID-M2-2025Q4"
      }
    },
    {
      "fullUrl": "urn:uuid:patient-2",
      "resource": {
        "resourceType": "Patient",
        "id": "LIPID-P2-2025Q4",
        "gender": "male",
        "birthDate": "1965-08-20",
        "name": [
          {
            "text": "李四",
            "family": "Li",
            "given": ["Si"]
          }
        ]
      },
      "request": {
        "method": "PUT",
        "url": "Patient/LIPID-P2-2025Q4"
      }
    },
    {
      "fullUrl": "urn:uuid:encounter-3",
      "resource": {
        "resourceType": "Encounter",
        "id": "LIPID-E3-2025Q4",
        "status": "finished",
        "class": {
          "system": "http://terminology.hl7.org/CodeSystem/v3-ActCode",
          "code": "AMB",
          "display": "ambulatory"
        },
        "subject": {
          "reference": "Patient/LIPID-P2-2025Q4"
        },
        "period": {
          "start": "2025-10-05T14:00:00+08:00",
          "end": "2025-10-05T14:30:00+08:00"
        }
      },
      "request": {
        "method": "PUT",
        "url": "Encounter/LIPID-E3-2025Q4"
      }
    },
    {
      "fullUrl": "urn:uuid:medication-3",
      "resource": {
        "resourceType": "MedicationRequest",
        "id": "LIPID-M3-2025Q4",
        "status": "completed",
        "intent": "order",
        "medicationCodeableConcept": {
          "coding": [
            {
              "system": "http://www.whocc.no/atc",
              "code": "C10AA01",
              "display": "Simvastatin"
            }
          ],
          "text": "素果 Simvastatin 20mg"
        },
        "subject": {
          "reference": "Patient/LIPID-P2-2025Q4"
        },
        "encounter": {
          "reference": "Encounter/LIPID-E3-2025Q4"
        },
        "authoredOn": "2025-10-05T14:00:00+08:00",
        "dosageInstruction": [
          {
            "timing": {
              "repeat": {
                "boundsPeriod": {
                  "start": "2025-10-05",
                  "end": "2025-11-01"
                },
                "frequency": 1,
                "period": 1,
                "periodUnit": "d"
              }
            },
            "doseAndRate": [
              {
                "doseQuantity": {
                  "value": 1,
                  "unit": "tablet"
                }
              }
            ]
          }
        ],
        "dispenseRequest": {
          "validityPeriod": {
            "start": "2025-10-05",
            "end": "2025-11-01"
          },
          "quantity": {
            "value": 28,
            "unit": "tablet"
          },
          "expectedSupplyDuration": {
            "value": 28,
            "unit": "days",
            "system": "http://unitsofmeasure.org",
            "code": "d"
          }
        }
      },
      "request": {
        "method": "PUT",
        "url": "MedicationRequest/LIPID-M3-2025Q4"
      }
    },
    {
      "fullUrl": "urn:uuid:encounter-4",
      "resource": {
        "resourceType": "Encounter",
        "id": "LIPID-E4-2025Q4",
        "status": "finished",
        "class": {
          "system": "http://terminology.hl7.org/CodeSystem/v3-ActCode",
          "code": "AMB",
          "display": "ambulatory"
        },
        "subject": {
          "reference": "Patient/LIPID-P2-2025Q4"
        },
        "period": {
          "start": "2025-10-25T15:00:00+08:00",
          "end": "2025-10-25T15:30:00+08:00"
        }
      },
      "request": {
        "method": "PUT",
        "url": "Encounter/LIPID-E4-2025Q4"
      }
    },
    {
      "fullUrl": "urn:uuid:medication-4",
      "resource": {
        "resourceType": "MedicationRequest",
        "id": "LIPID-M4-2025Q4",
        "status": "completed",
        "intent": "order",
        "medicationCodeableConcept": {
          "coding": [
            {
              "system": "http://www.whocc.no/atc",
              "code": "C10AB02",
              "display": "Bezafibrate"
            }
          ],
          "text": "倍降脂 Bezafibrate 200mg"
        },
        "subject": {
          "reference": "Patient/LIPID-P2-2025Q4"
        },
        "encounter": {
          "reference": "Encounter/LIPID-E4-2025Q4"
        },
        "authoredOn": "2025-10-25T15:00:00+08:00",
        "dosageInstruction": [
          {
            "timing": {
              "repeat": {
                "boundsPeriod": {
                  "start": "2025-10-25",
                  "end": "2025-11-21"
                },
                "frequency": 1,
                "period": 1,
                "periodUnit": "d"
              }
            },
            "doseAndRate": [
              {
                "doseQuantity": {
                  "value": 1,
                  "unit": "tablet"
                }
              }
            ]
          }
        ],
        "dispenseRequest": {
          "validityPeriod": {
            "start": "2025-10-25",
            "end": "2025-11-21"
          },
          "quantity": {
            "value": 28,
            "unit": "tablet"
          },
          "expectedSupplyDuration": {
            "value": 28,
            "unit": "days",
            "system": "http://unitsofmeasure.org",
            "code": "d"
          }
        }
      },
      "request": {
        "method": "PUT",
        "url": "MedicationRequest/LIPID-M4-2025Q4"
      }
    },
    {
      "fullUrl": "urn:uuid:patient-3",
      "resource": {
        "resourceType": "Patient",
        "id": "LIPID-P3-2025Q4",
        "gender": "male",
        "birthDate": "1958-12-10",
        "name": [
          {
            "text": "王五",
            "family": "Wang",
            "given": ["Wu"]
          }
        ]
      },
      "request": {
        "method": "PUT",
        "url": "Patient/LIPID-P3-2025Q4"
      }
    },
    {
      "fullUrl": "urn:uuid:encounter-5",
      "resource": {
        "resourceType": "Encounter",
        "id": "LIPID-E5-2025Q4",
        "status": "finished",
        "class": {
          "system": "http://terminology.hl7.org/CodeSystem/v3-ActCode",
          "code": "AMB",
          "display": "ambulatory"
        },
        "subject": {
          "reference": "Patient/LIPID-P3-2025Q4"
        },
        "period": {
          "start": "2025-10-01T11:00:00+08:00",
          "end": "2025-10-01T11:30:00+08:00"
        }
      },
      "request": {
        "method": "PUT",
        "url": "Encounter/LIPID-E5-2025Q4"
      }
    },
    {
      "fullUrl": "urn:uuid:medication-5",
      "resource": {
        "resourceType": "MedicationRequest",
        "id": "LIPID-M5-2025Q4",
        "status": "completed",
        "intent": "order",
        "medicationCodeableConcept": {
          "coding": [
            {
              "system": "http://www.whocc.no/atc",
              "code": "C10AA07",
              "display": "Rosuvastatin"
            }
          ],
          "text": "冠脂妥 Rosuvastatin 10mg"
        },
        "subject": {
          "reference": "Patient/LIPID-P3-2025Q4"
        },
        "encounter": {
          "reference": "Encounter/LIPID-E5-2025Q4"
        },
        "authoredOn": "2025-10-01T11:00:00+08:00",
        "dosageInstruction": [
          {
            "timing": {
              "repeat": {
                "boundsPeriod": {
                  "start": "2025-10-01",
                  "end": "2025-10-30"
                },
                "frequency": 1,
                "period": 1,
                "periodUnit": "d"
              }
            },
            "doseAndRate": [
              {
                "doseQuantity": {
                  "value": 1,
                  "unit": "tablet"
                }
              }
            ]
          }
        ],
        "dispenseRequest": {
          "validityPeriod": {
            "start": "2025-10-01",
            "end": "2025-10-30"
          },
          "quantity": {
            "value": 30,
            "unit": "tablet"
          },
          "expectedSupplyDuration": {
            "value": 30,
            "unit": "days",
            "system": "http://unitsofmeasure.org",
            "code": "d"
          }
        }
      },
      "request": {
        "method": "PUT",
        "url": "MedicationRequest/LIPID-M5-2025Q4"
      }
    },
    {
      "fullUrl": "urn:uuid:encounter-6",
      "resource": {
        "resourceType": "Encounter",
        "id": "LIPID-E6-2025Q4",
        "status": "finished",
        "class": {
          "system": "http://terminology.hl7.org/CodeSystem/v3-ActCode",
          "code": "AMB",
          "display": "ambulatory"
        },
        "subject": {
          "reference": "Patient/LIPID-P3-2025Q4"
        },
        "period": {
          "start": "2025-11-01T11:00:00+08:00",
          "end": "2025-11-01T11:30:00+08:00"
        }
      },
      "request": {
        "method": "PUT",
        "url": "Encounter/LIPID-E6-2025Q4"
      }
    },
    {
      "fullUrl": "urn:uuid:medication-6",
      "resource": {
        "resourceType": "MedicationRequest",
        "id": "LIPID-M6-2025Q4",
        "status": "completed",
        "intent": "order",
        "medicationCodeableConcept": {
          "coding": [
            {
              "system": "http://www.whocc.no/atc",
              "code": "C10AA07",
              "display": "Rosuvastatin"
            }
          ],
          "text": "冠脂妥 Rosuvastatin 10mg"
        },
        "subject": {
          "reference": "Patient/LIPID-P3-2025Q4"
        },
        "encounter": {
          "reference": "Encounter/LIPID-E6-2025Q4"
        },
        "authoredOn": "2025-11-01T11:00:00+08:00",
        "dosageInstruction": [
          {
            "timing": {
              "repeat": {
                "boundsPeriod": {
                  "start": "2025-11-01",
                  "end": "2025-11-30"
                },
                "frequency": 1,
                "period": 1,
                "periodUnit": "d"
              }
            },
            "doseAndRate": [
              {
                "doseQuantity": {
                  "value": 1,
                  "unit": "tablet"
                }
              }
            ]
          }
        ],
        "dispenseRequest": {
          "validityPeriod": {
            "start": "2025-11-01",
            "end": "2025-11-30"
          },
          "quantity": {
            "value": 30,
            "unit": "tablet"
          },
          "expectedSupplyDuration": {
            "value": 30,
            "unit": "days",
            "system": "http://unitsofmeasure.org",
            "code": "d"
          }
        }
      },
      "request": {
        "method": "PUT",
        "url": "MedicationRequest/LIPID-M6-2025Q4"
      }
    },
    {
      "fullUrl": "urn:uuid:patient-4",
      "resource": {
        "resourceType": "Patient",
        "id": "LIPID-P4-2025Q4",
        "gender": "male",
        "birthDate": "1962-03-25",
        "name": [
          {
            "text": "陳六",
            "family": "Chen",
            "given": ["Liu"]
          }
        ]
      },
      "request": {
        "method": "PUT",
        "url": "Patient/LIPID-P4-2025Q4"
      }
    },
    {
      "fullUrl": "urn:uuid:encounter-7",
      "resource": {
        "resourceType": "Encounter",
        "id": "LIPID-E7-2025Q4",
        "status": "finished",
        "class": {
          "system": "http://terminology.hl7.org/CodeSystem/v3-ActCode",
          "code": "AMB",
          "display": "ambulatory"
        },
        "subject": {
          "reference": "Patient/LIPID-P4-2025Q4"
        },
        "period": {
          "start": "2025-10-10T13:00:00+08:00",
          "end": "2025-10-10T13:30:00+08:00"
        }
      },
      "request": {
        "method": "PUT",
        "url": "Encounter/LIPID-E7-2025Q4"
      }
    },
    {
      "fullUrl": "urn:uuid:medication-7",
      "resource": {
        "resourceType": "MedicationRequest",
        "id": "LIPID-M7-2025Q4",
        "status": "completed",
        "intent": "order",
        "medicationCodeableConcept": {
          "coding": [
            {
              "system": "http://www.whocc.no/atc",
              "code": "C10AA03",
              "display": "Pravastatin"
            }
          ],
          "text": "美百樂鎮 Pravastatin 20mg"
        },
        "subject": {
          "reference": "Patient/LIPID-P4-2025Q4"
        },
        "encounter": {
          "reference": "Encounter/LIPID-E7-2025Q4"
        },
        "authoredOn": "2025-10-10T13:00:00+08:00",
        "dosageInstruction": [
          {
            "timing": {
              "repeat": {
                "boundsPeriod": {
                  "start": "2025-10-10",
                  "end": "2025-11-08"
                },
                "frequency": 1,
                "period": 1,
                "periodUnit": "d"
              }
            },
            "doseAndRate": [
              {
                "doseQuantity": {
                  "value": 1,
                  "unit": "tablet"
                }
              }
            ]
          }
        ],
        "dispenseRequest": {
          "validityPeriod": {
            "start": "2025-10-10",
            "end": "2025-11-08"
          },
          "quantity": {
            "value": 30,
            "unit": "tablet"
          },
          "expectedSupplyDuration": {
            "value": 30,
            "unit": "days",
            "system": "http://unitsofmeasure.org",
            "code": "d"
          }
        }
      },
      "request": {
        "method": "PUT",
        "url": "MedicationRequest/LIPID-M7-2025Q4"
      }
    },
    {
      "fullUrl": "urn:uuid:patient-5",
      "resource": {
        "resourceType": "Patient",
        "id": "LIPID-P5-2025Q4",
        "gender": "female",
        "birthDate": "1970-07-18",
        "name": [
          {
            "text": "林七",
            "family": "Lin",
            "given": ["Qi"]
          }
        ]
      },
      "request": {
        "method": "PUT",
        "url": "Patient/LIPID-P5-2025Q4"
      }
    },
    {
      "fullUrl": "urn:uuid:encounter-8",
      "resource": {
        "resourceType": "Encounter",
        "id": "LIPID-E8-2025Q4",
        "status": "finished",
        "class": {
          "system": "http://terminology.hl7.org/CodeSystem/v3-ActCode",
          "code": "AMB",
          "display": "ambulatory"
        },
        "subject": {
          "reference": "Patient/LIPID-P5-2025Q4"
        },
        "period": {
          "start": "2025-10-15T16:00:00+08:00",
          "end": "2025-10-15T16:30:00+08:00"
        }
      },
      "request": {
        "method": "PUT",
        "url": "Encounter/LIPID-E8-2025Q4"
      }
    },
    {
      "fullUrl": "urn:uuid:medication-8",
      "resource": {
        "resourceType": "MedicationRequest",
        "id": "LIPID-M8-2025Q4",
        "status": "completed",
        "intent": "order",
        "medicationCodeableConcept": {
          "coding": [
            {
              "system": "http://www.whocc.no/atc",
              "code": "C10AB04",
              "display": "Gemfibrozil"
            }
          ],
          "text": "健菲布 Gemfibrozil 600mg"
        },
        "subject": {
          "reference": "Patient/LIPID-P5-2025Q4"
        },
        "encounter": {
          "reference": "Encounter/LIPID-E8-2025Q4"
        },
        "authoredOn": "2025-10-15T16:00:00+08:00",
        "dosageInstruction": [
          {
            "timing": {
              "repeat": {
                "boundsPeriod": {
                  "start": "2025-10-15",
                  "end": "2025-11-11"
                },
                "frequency": 1,
                "period": 1,
                "periodUnit": "d"
              }
            },
            "doseAndRate": [
              {
                "doseQuantity": {
                  "value": 1,
                  "unit": "tablet"
                }
              }
            ]
          }
        ],
        "dispenseRequest": {
          "validityPeriod": {
            "start": "2025-10-15",
            "end": "2025-11-11"
          },
          "quantity": {
            "value": 28,
            "unit": "tablet"
          },
          "expectedSupplyDuration": {
            "value": 28,
            "unit": "days",
            "system": "http://unitsofmeasure.org",
            "code": "d"
          }
        }
      },
      "request": {
        "method": "PUT",
        "url": "MedicationRequest/LIPID-M8-2025Q4"
      }
    },
    {
      "fullUrl": "urn:uuid:encounter-9",
      "resource": {
        "resourceType": "Encounter",
        "id": "LIPID-E9-2025Q4",
        "status": "finished",
        "class": {
          "system": "http://terminology.hl7.org/CodeSystem/v3-ActCode",
          "code": "AMB",
          "display": "ambulatory"
        },
        "subject": {
          "reference": "Patient/LIPID-P5-2025Q4"
        },
        "period": {
          "start": "2025-10-20T14:00:00+08:00",
          "end": "2025-10-20T14:30:00+08:00"
        }
      },
      "request": {
        "method": "PUT",
        "url": "Encounter/LIPID-E9-2025Q4"
      }
    },
    {
      "fullUrl": "urn:uuid:medication-9",
      "resource": {
        "resourceType": "MedicationRequest",
        "id": "LIPID-M9-2025Q4",
        "status": "completed",
        "intent": "order",
        "medicationCodeableConcept": {
          "coding": [
            {
              "system": "http://www.whocc.no/atc",
              "code": "C10AB02",
              "display": "Bezafibrate"
            }
          ],
          "text": "倍降脂 Bezafibrate 200mg"
        },
        "subject": {
          "reference": "Patient/LIPID-P5-2025Q4"
        },
        "encounter": {
          "reference": "Encounter/LIPID-E9-2025Q4"
        },
        "authoredOn": "2025-10-20T14:00:00+08:00",
        "dosageInstruction": [
          {
            "timing": {
              "repeat": {
                "boundsPeriod": {
                  "start": "2025-10-20",
                  "end": "2025-11-16"
                },
                "frequency": 1,
                "period": 1,
                "periodUnit": "d"
              }
            },
            "doseAndRate": [
              {
                "doseQuantity": {
                  "value": 1,
                  "unit": "tablet"
                }
              }
            ]
          }
        ],
        "dispenseRequest": {
          "validityPeriod": {
            "start": "2025-10-20",
            "end": "2025-11-16"
          },
          "quantity": {
            "value": 28,
            "unit": "tablet"
          },
          "expectedSupplyDuration": {
            "value": 28,
            "unit": "days",
            "system": "http://unitsofmeasure.org",
            "code": "d"
          }
        }
      },
      "request": {
        "method": "PUT",
        "url": "MedicationRequest/LIPID-M9-2025Q4"
      }
    },
    {
      "fullUrl": "urn:uuid:encounter-10",
      "resource": {
        "resourceType": "Encounter",
        "id": "LIPID-E10-2025Q4",
        "status": "finished",
        "class": {
          "system": "http://terminology.hl7.org/CodeSystem/v3-ActCode",
          "code": "AMB",
          "display": "ambulatory"
        },
        "subject": {
          "reference": "Patient/LIPID-P5-2025Q4"
        },
        "period": {
          "start": "2025-10-01T15:00:00+08:00",
          "end": "2025-10-01T15:30:00+08:00"
        }
      },
      "request": {
        "method": "PUT",
        "url": "Encounter/LIPID-E10-2025Q4"
      }
    },
    {
      "fullUrl": "urn:uuid:medication-10",
      "resource": {
        "resourceType": "MedicationRequest",
        "id": "LIPID-M10-2025Q4",
        "status": "completed",
        "intent": "order",
        "medicationCodeableConcept": {
          "coding": [
            {
              "system": "http://www.whocc.no/atc",
              "code": "C10AX09",
              "display": "Ezetimibe"
            }
          ],
          "text": "易妥脂 Ezetimibe 10mg"
        },
        "subject": {
          "reference": "Patient/LIPID-P5-2025Q4"
        },
        "encounter": {
          "reference": "Encounter/LIPID-E10-2025Q4"
        },
        "authoredOn": "2025-10-01T15:00:00+08:00",
        "dosageInstruction": [
          {
            "timing": {
              "repeat": {
                "boundsPeriod": {
                  "start": "2025-10-01",
                  "end": "2025-10-28"
                },
                "frequency": 1,
                "period": 1,
                "periodUnit": "d"
              }
            },
            "doseAndRate": [
              {
                "doseQuantity": {
                  "value": 1,
                  "unit": "tablet"
                }
              }
            ]
          }
        ],
        "dispenseRequest": {
          "validityPeriod": {
            "start": "2025-10-01",
            "end": "2025-10-28"
          },
          "quantity": {
            "value": 28,
            "unit": "tablet"
          },
          "expectedSupplyDuration": {
            "value": 28,
            "unit": "days",
            "system": "http://unitsofmeasure.org",
            "code": "d"
          }
        }
      },
      "request": {
        "method": "PUT",
        "url": "MedicationRequest/LIPID-M10-2025Q4"
      }
    }
  ]
}
