{
  "resourceType": "Bundle",
  "type": "transaction",
  "entry": [
    {
      "fullUrl": "urn:uuid:patient-antipsychotic-cross-1",
      "resource": {
        "resourceType": "Patient",
        "id": "ANTIPSYCHOTIC-CROSS-P1",
        "gender": "male",
        "birthDate": "1976-08-25",
        "name": [{"text": "陳志豪", "family": "Chen", "given": ["Zhihao"]}]
      },
      "request": {"method": "PUT", "url": "Patient/ANTIPSYCHOTIC-CROSS-P1"}
    },
    {
      "fullUrl": "urn:uuid:patient-antipsychotic-cross-2",
      "resource": {
        "resourceType": "Patient",
        "id": "ANTIPSYCHOTIC-CROSS-P2",
        "gender": "female",
        "birthDate": "1982-03-18",
        "name": [{"text": "林淑芬", "family": "Lin", "given": ["Shufen"]}]
      },
      "request": {"method": "PUT", "url": "Patient/ANTIPSYCHOTIC-CROSS-P2"}
    },
    {
      "fullUrl": "urn:uuid:patient-antipsychotic-cross-3",
      "resource": {
        "resourceType": "Patient",
        "id": "ANTIPSYCHOTIC-CROSS-P3",
        "gender": "male",
        "birthDate": "1979-11-05",
        "name": [{"text": "黃建華", "family": "Huang", "given": ["Jianhua"]}]
      },
      "request": {"method": "PUT", "url": "Patient/ANTIPSYCHOTIC-CROSS-P3"}
    },
    {
      "fullUrl": "urn:uuid:enc-antipsychotic-cross-1a",
      "resource": {
        "resourceType": "Encounter",
        "id": "ANTIPSYCHOTIC-CROSS-E1A",
        "status": "finished",
        "class": {"system": "http://terminology.hl7.org/CodeSystem/v3-ActCode", "code": "AMB"},
        "subject": {"reference": "Patient/ANTIPSYCHOTIC-CROSS-P1"},
        "serviceProvider": {"reference": "Organization/HOSPITAL-C"},
        "period": {"start": "2025-10-02T10:00:00+08:00", "end": "2025-10-02T10:30:00+08:00"}
      },
      "request": {"method": "PUT", "url": "Encounter/ANTIPSYCHOTIC-CROSS-E1A"}
    },
    {
      "fullUrl": "urn:uuid:med-antipsychotic-cross-1a",
      "resource": {
        "resourceType": "MedicationRequest",
        "id": "ANTIPSYCHOTIC-CROSS-M1A",
        "status": "completed",
        "intent": "order",
        "medicationCodeableConcept": {
          "coding": [{"system": "http://www.whocc.no/atc", "code": "N05AH04", "display": "Quetiapine"}],
          "text": "思樂康 Quetiapine 200mg"
        },
        "subject": {"reference": "Patient/ANTIPSYCHOTIC-CROSS-P1"},
        "encounter": {"reference": "Encounter/ANTIPSYCHOTIC-CROSS-E1A"},
        "authoredOn": "2025-10-02T10:00:00+08:00",
        "dosageInstruction": [{
          "timing": {"repeat": {"boundsPeriod": {"start": "2025-10-02", "end": "2025-10-29"}, "frequency": 2, "period": 1, "periodUnit": "d"}},
          "doseAndRate": [{"doseQuantity": {"value": 1, "unit": "tablet"}}]
        }],
        "dispenseRequest": {
          "validityPeriod": {"start": "2025-10-02", "end": "2025-10-29"},
          "quantity": {"value": 56, "unit": "tablet"},
          "expectedSupplyDuration": {"value": 28, "unit": "days", "system": "http://unitsofmeasure.org", "code": "d"}
        }
      },
      "request": {"method": "PUT", "url": "MedicationRequest/ANTIPSYCHOTIC-CROSS-M1A"}
    },
    {
      "fullUrl": "urn:uuid:enc-antipsychotic-cross-1b",
      "resource": {
        "resourceType": "Encounter",
        "id": "ANTIPSYCHOTIC-CROSS-E1B",
        "status": "finished",
        "class": {"system": "http://terminology.hl7.org/CodeSystem/v3-ActCode", "code": "AMB"},
        "subject": {"reference": "Patient/ANTIPSYCHOTIC-CROSS-P1"},
        "serviceProvider": {"reference": "Organization/HOSPITAL-D"},
        "period": {"start": "2025-10-09T14:00:00+08:00", "end": "2025-10-09T14:30:00+08:00"}
      },
      "request": {"method": "PUT", "url": "Encounter/ANTIPSYCHOTIC-CROSS-E1B"}
    },
    {
      "fullUrl": "urn:uuid:med-antipsychotic-cross-1b",
      "resource": {
        "resourceType": "MedicationRequest",
        "id": "ANTIPSYCHOTIC-CROSS-M1B",
        "status": "completed",
        "intent": "order",
        "medicationCodeableConcept": {
          "coding": [{"system": "http://www.whocc.no/atc", "code": "N05AX08", "display": "Risperidone"}],
          "text": "理思必妥 Risperidone 3mg"
        },
        "subject": {"reference": "Patient/ANTIPSYCHOTIC-CROSS-P1"},
        "encounter": {"reference": "Encounter/ANTIPSYCHOTIC-CROSS-E1B"},
        "authoredOn": "2025-10-09T14:00:00+08:00",
        "dosageInstruction": [{
          "timing": {"repeat": {"boundsPeriod": {"start": "2025-10-09", "end": "2025-11-05"}, "frequency": 2, "period": 1, "periodUnit": "d"}},
          "doseAndRate": [{"doseQuantity": {"value": 1, "unit": "tablet"}}]
        }],
        "dispenseRequest": {
          "validityPeriod": {"start": "2025-10-09", "end": "2025-11-05"},
          "quantity": {"value": 56, "unit": "tablet"},
          "expectedSupplyDuration": {"value": 28, "unit": "days", "system": "http://unitsofmeasure.org", "code": "d"}
        }
      },
      "request": {"method": "PUT", "url": "MedicationRequest/ANTIPSYCHOTIC-CROSS-M1B"}
    },
    {
      "fullUrl": "urn:uuid:enc-antipsychotic-cross-2a",
      "resource": {
        "resourceType": "Encounter",
        "id": "ANTIPSYCHOTIC-CROSS-E2A",
        "status": "finished",
        "class": {"system": "http://terminology.hl7.org/CodeSystem/v3-ActCode", "code": "AMB"},
        "subject": {"reference": "Patient/ANTIPSYCHOTIC-CROSS-P2"},
        "serviceProvider": {"reference": "Organization/HOSPITAL-C"},
        "period": {"start": "2025-10-04T09:00:00+08:00", "end": "2025-10-04T09:30:00+08:00"}
      },
      "request": {"method": "PUT", "url": "Encounter/ANTIPSYCHOTIC-CROSS-E2A"}
    },
    {
      "fullUrl": "urn:uuid:med-antipsychotic-cross-2a",
      "resource": {
        "resourceType": "MedicationRequest",
        "id": "ANTIPSYCHOTIC-CROSS-M2A",
        "status": "completed",
        "intent": "order",
        "medicationCodeableConcept": {
          "coding": [{"system": "http://www.whocc.no/atc", "code": "N05AH03", "display": "Olanzapine"}],
          "text": "金普薩 Olanzapine 5mg"
        },
        "subject": {"reference": "Patient/ANTIPSYCHOTIC-CROSS-P2"},
        "encounter": {"reference": "Encounter/ANTIPSYCHOTIC-CROSS-E2A"},
        "authoredOn": "2025-10-04T09:00:00+08:00",
        "dosageInstruction": [{
          "timing": {"repeat": {"boundsPeriod": {"start": "2025-10-04", "end": "2025-10-31"}, "frequency": 1, "period": 1, "periodUnit": "d"}},
          "doseAndRate": [{"doseQuantity": {"value": 1, "unit": "tablet"}}]
        }],
        "dispenseRequest": {
          "validityPeriod": {"start": "2025-10-04", "end": "2025-10-31"},
          "quantity": {"value": 28, "unit": "tablet"},
          "expectedSupplyDuration": {"value": 28, "unit": "days", "system": "http://unitsofmeasure.org", "code": "d"}
        }
      },
      "request": {"method": "PUT", "url": "MedicationRequest/ANTIPSYCHOTIC-CROSS-M2A"}
    },
    {
      "fullUrl": "urn:uuid:enc-antipsychotic-cross-2b",
      "resource": {
        "resourceType": "Encounter",
        "id": "ANTIPSYCHOTIC-CROSS-E2B",
        "status": "finished",
        "class": {"system": "http://terminology.hl7.org/CodeSystem/v3-ActCode", "code": "AMB"},
        "subject": {"reference": "Patient/ANTIPSYCHOTIC-CROSS-P2"},
        "serviceProvider": {"reference": "Organization/HOSPITAL-D"},
        "period": {"start": "2025-10-11T11:00:00+08:00", "end": "2025-10-11T11:30:00+08:00"}
      },
      "request": {"method": "PUT", "url": "Encounter/ANTIPSYCHOTIC-CROSS-E2B"}
    },
    {
      "fullUrl": "urn:uuid:med-antipsychotic-cross-2b",
      "resource": {
        "resourceType": "MedicationRequest",
        "id": "ANTIPSYCHOTIC-CROSS-M2B",
        "status": "completed",
        "intent": "order",
        "medicationCodeableConcept": {
          "coding": [{"system": "http://www.whocc.no/atc", "code": "N05AX12", "display": "Aripiprazole"}],
          "text": "安立復 Aripiprazole 15mg"
        },
        "subject": {"reference": "Patient/ANTIPSYCHOTIC-CROSS-P2"},
        "encounter": {"reference": "Encounter/ANTIPSYCHOTIC-CROSS-E2B"},
        "authoredOn": "2025-10-11T11:00:00+08:00",
        "dosageInstruction": [{
          "timing": {"repeat": {"boundsPeriod": {"start": "2025-10-11", "end": "2025-11-07"}, "frequency": 1, "period": 1, "periodUnit": "d"}},
          "doseAndRate": [{"doseQuantity": {"value": 1, "unit": "tablet"}}]
        }],
        "dispenseRequest": {
          "validityPeriod": {"start": "2025-10-11", "end": "2025-11-07"},
          "quantity": {"value": 28, "unit": "tablet"},
          "expectedSupplyDuration": {"value": 28, "unit": "days", "system": "http://unitsofmeasure.org", "code": "d"}
        }
      },
      "request": {"method": "PUT", "url": "MedicationRequest/ANTIPSYCHOTIC-CROSS-M2B"}
    },
    {
      "fullUrl": "urn:uuid:enc-antipsychotic-cross-3a",
      "resource": {
        "resourceType": "Encounter",
        "id": "ANTIPSYCHOTIC-CROSS-E3A",
        "status": "finished",
        "class": {"system": "http://terminology.hl7.org/CodeSystem/v3-ActCode", "code": "AMB"},
        "subject": {"reference": "Patient/ANTIPSYCHOTIC-CROSS-P3"},
        "serviceProvider": {"reference": "Organization/HOSPITAL-C"},
        "period": {"start": "2025-10-06T15:00:00+08:00", "end": "2025-10-06T15:30:00+08:00"}
      },
      "request": {"method": "PUT", "url": "Encounter/ANTIPSYCHOTIC-CROSS-E3A"}
    },
    {
      "fullUrl": "urn:uuid:med-antipsychotic-cross-3a",
      "resource": {
        "resourceType": "MedicationRequest",
        "id": "ANTIPSYCHOTIC-CROSS-M3A",
        "status": "completed",
        "intent": "order",
        "medicationCodeableConcept": {
          "coding": [{"system": "http://www.whocc.no/atc", "code": "N05AX08", "display": "Risperidone"}],
          "text": "理思必妥 Risperidone 2mg"
        },
        "subject": {"reference": "Patient/ANTIPSYCHOTIC-CROSS-P3"},
        "encounter": {"reference": "Encounter/ANTIPSYCHOTIC-CROSS-E3A"},
        "authoredOn": "2025-10-06T15:00:00+08:00",
        "dosageInstruction": [{
          "timing": {"repeat": {"boundsPeriod": {"start": "2025-10-06", "end": "2025-11-02"}, "frequency": 2, "period": 1, "periodUnit": "d"}},
          "doseAndRate": [{"doseQuantity": {"value": 1, "unit": "tablet"}}]
        }],
        "dispenseRequest": {
          "validityPeriod": {"start": "2025-10-06", "end": "2025-11-02"},
          "quantity": {"value": 56, "unit": "tablet"},
          "expectedSupplyDuration": {"value": 28, "unit": "days", "system": "http://unitsofmeasure.org", "code": "d"}
        }
      },
      "request": {"method": "PUT", "url": "MedicationRequest/ANTIPSYCHOTIC-CROSS-M3A"}
    },
    {
      "fullUrl": "urn:uuid:enc-antipsychotic-cross-3b",
      "resource": {
        "resourceType": "Encounter",
        "id": "ANTIPSYCHOTIC-CROSS-E3B",
        "status": "finished",
        "class": {"system": "http://terminology.hl7.org/CodeSystem/v3-ActCode", "code": "AMB"},
        "subject": {"reference": "Patient/ANTIPSYCHOTIC-CROSS-P3"},
        "serviceProvider": {"reference": "Organization/HOSPITAL-D"},
        "period": {"start": "2025-10-13T16:00:00+08:00", "end": "2025-10-13T16:30:00+08:00"}
      },
      "request": {"method": "PUT", "url": "Encounter/ANTIPSYCHOTIC-CROSS-E3B"}
    },
    {
      "fullUrl": "urn:uuid:med-antipsychotic-cross-3b",
      "resource": {
        "resourceType": "MedicationRequest",
        "id": "ANTIPSYCHOTIC-CROSS-M3B",
        "status": "completed",
        "intent": "order",
        "medicationCodeableConcept": {
          "coding": [{"system": "http://www.whocc.no/atc", "code": "N05AH04", "display": "Quetiapine"}],
          "text": "思樂康 Quetiapine 100mg"
        },
        "subject": {"reference": "Patient/ANTIPSYCHOTIC-CROSS-P3"},
        "encounter": {"reference": "Encounter/ANTIPSYCHOTIC-CROSS-E3B"},
        "authoredOn": "2025-10-13T16:00:00+08:00",
        "dosageInstruction": [{
          "timing": {"repeat": {"boundsPeriod": {"start": "2025-10-13", "end": "2025-11-09"}, "frequency": 2, "period": 1, "periodUnit": "d"}},
          "doseAndRate": [{"doseQuantity": {"value": 1, "unit": "tablet"}}]
        }],
        "dispenseRequest": {
          "validityPeriod": {"start": "2025-10-13", "end": "2025-11-09"},
          "quantity": {"value": 56, "unit": "tablet"},
          "expectedSupplyDuration": {"value": 28, "unit": "days", "system": "http://unitsofmeasure.org", "code": "d"}
        }
      },
      "request": {"method": "PUT", "url": "MedicationRequest/ANTIPSYCHOTIC-CROSS-M3B"}
    }
  ]
}
