{
  "resourceType": "Bundle",
  "type": "transaction",
  "entry": [
    {
      "request": {
        "method": "PUT",
        "url": "Organization/org-hospital-same-antipsych"
      },
      "resource": {
        "resourceType": "Organization",
        "id": "org-hospital-same-antipsych",
        "name": "同一醫院_抗思覺失調測試",
        "type": [
          {
            "coding": [
              {
                "system": "http://terminology.hl7.org/CodeSystem/organization-type",
                "code": "prov",
                "display": "Healthcare Provider"
              }
            ]
          }
        ]
      }
    },
    {
      "request": {
        "method": "PUT",
        "url": "Patient/patient-antipsych-same-001"
      },
      "resource": {
        "resourceType": "Patient",
        "id": "patient-antipsych-same-001",
        "identifier": [
          {
            "system": "http://www.moi.gov.tw",
            "value": "ANTIPSYCH-SAME-001"
          }
        ],
        "name": [
          {
            "text": "同院抗思覺失調001",
            "family": "同院",
            "given": ["抗思覺001"]
          }
        ],
        "gender": "male",
        "birthDate": "1975-06-12"
      }
    },
    {
      "request": {
        "method": "PUT",
        "url": "Patient/patient-antipsych-same-002"
      },
      "resource": {
        "resourceType": "Patient",
        "id": "patient-antipsych-same-002",
        "identifier": [
          {
            "system": "http://www.moi.gov.tw",
            "value": "ANTIPSYCH-SAME-002"
          }
        ],
        "name": [
          {
            "text": "同院抗思覺失調002",
            "family": "同院",
            "given": ["抗思覺002"]
          }
        ],
        "gender": "female",
        "birthDate": "1982-03-28"
      }
    },
    {
      "request": {
        "method": "PUT",
        "url": "Patient/patient-antipsych-same-003"
      },
      "resource": {
        "resourceType": "Patient",
        "id": "patient-antipsych-same-003",
        "identifier": [
          {
            "system": "http://www.moi.gov.tw",
            "value": "ANTIPSYCH-SAME-003"
          }
        ],
        "name": [
          {
            "text": "同院抗思覺失調003",
            "family": "同院",
            "given": ["抗思覺003"]
          }
        ],
        "gender": "male",
        "birthDate": "1968-11-05"
      }
    },
    {
      "request": {
        "method": "PUT",
        "url": "Encounter/encounter-antipsych-same-001-a"
      },
      "resource": {
        "resourceType": "Encounter",
        "id": "encounter-antipsych-same-001-a",
        "status": "finished",
        "class": {
          "system": "http://terminology.hl7.org/CodeSystem/v3-ActCode",
          "code": "AMB",
          "display": "ambulatory"
        },
        "subject": {
          "reference": "Patient/patient-antipsych-same-001"
        },
        "serviceProvider": {
          "reference": "Organization/org-hospital-same-antipsych"
        },
        "period": {
          "start": "2025-10-10T09:00:00+08:00",
          "end": "2025-10-10T10:00:00+08:00"
        }
      }
    },
    {
      "request": {
        "method": "PUT",
        "url": "Encounter/encounter-antipsych-same-001-b"
      },
      "resource": {
        "resourceType": "Encounter",
        "id": "encounter-antipsych-same-001-b",
        "status": "finished",
        "class": {
          "system": "http://terminology.hl7.org/CodeSystem/v3-ActCode",
          "code": "AMB",
          "display": "ambulatory"
        },
        "subject": {
          "reference": "Patient/patient-antipsych-same-001"
        },
        "serviceProvider": {
          "reference": "Organization/org-hospital-same-antipsych"
        },
        "period": {
          "start": "2025-10-18T14:00:00+08:00",
          "end": "2025-10-18T15:00:00+08:00"
        }
      }
    },
    {
      "request": {
        "method": "PUT",
        "url": "Encounter/encounter-antipsych-same-002-a"
      },
      "resource": {
        "resourceType": "Encounter",
        "id": "encounter-antipsych-same-002-a",
        "status": "finished",
        "class": {
          "system": "http://terminology.hl7.org/CodeSystem/v3-ActCode",
          "code": "AMB",
          "display": "ambulatory"
        },
        "subject": {
          "reference": "Patient/patient-antipsych-same-002"
        },
        "serviceProvider": {
          "reference": "Organization/org-hospital-same-antipsych"
        },
        "period": {
          "start": "2025-11-05T10:30:00+08:00",
          "end": "2025-11-05T11:30:00+08:00"
        }
      }
    },
    {
      "request": {
        "method": "PUT",
        "url": "Encounter/encounter-antipsych-same-002-b"
      },
      "resource": {
        "resourceType": "Encounter",
        "id": "encounter-antipsych-same-002-b",
        "status": "finished",
        "class": {
          "system": "http://terminology.hl7.org/CodeSystem/v3-ActCode",
          "code": "AMB",
          "display": "ambulatory"
        },
        "subject": {
          "reference": "Patient/patient-antipsych-same-002"
        },
        "serviceProvider": {
          "reference": "Organization/org-hospital-same-antipsych"
        },
        "period": {
          "start": "2025-11-12T15:00:00+08:00",
          "end": "2025-11-12T16:00:00+08:00"
        }
      }
    },
    {
      "request": {
        "method": "PUT",
        "url": "Encounter/encounter-antipsych-same-003-a"
      },
      "resource": {
        "resourceType": "Encounter",
        "id": "encounter-antipsych-same-003-a",
        "status": "finished",
        "class": {
          "system": "http://terminology.hl7.org/CodeSystem/v3-ActCode",
          "code": "AMB",
          "display": "ambulatory"
        },
        "subject": {
          "reference": "Patient/patient-antipsych-same-003"
        },
        "serviceProvider": {
          "reference": "Organization/org-hospital-same-antipsych"
        },
        "period": {
          "start": "2025-12-01T09:00:00+08:00",
          "end": "2025-12-01T10:00:00+08:00"
        }
      }
    },
    {
      "request": {
        "method": "PUT",
        "url": "Encounter/encounter-antipsych-same-003-b"
      },
      "resource": {
        "resourceType": "Encounter",
        "id": "encounter-antipsych-same-003-b",
        "status": "finished",
        "class": {
          "system": "http://terminology.hl7.org/CodeSystem/v3-ActCode",
          "code": "AMB",
          "display": "ambulatory"
        },
        "subject": {
          "reference": "Patient/patient-antipsych-same-003"
        },
        "serviceProvider": {
          "reference": "Organization/org-hospital-same-antipsych"
        },
        "period": {
          "start": "2025-12-08T13:30:00+08:00",
          "end": "2025-12-08T14:30:00+08:00"
        }
      }
    },
    {
      "request": {
        "method": "PUT",
        "url": "MedicationRequest/medreq-antipsych-same-001-a"
      },
      "resource": {
        "resourceType": "MedicationRequest",
        "id": "medreq-antipsych-same-001-a",
        "status": "completed",
        "intent": "order",
        "medicationCodeableConcept": {
          "coding": [
            {
              "system": "http://www.whocc.no/atc",
              "code": "N05AH04",
              "display": "Quetiapine"
            }
          ],
          "text": "Quetiapine 200mg"
        },
        "subject": {
          "reference": "Patient/patient-antipsych-same-001"
        },
        "encounter": {
          "reference": "Encounter/encounter-antipsych-same-001-a"
        },
        "authoredOn": "2025-10-10T09:30:00+08:00",
        "dispenseRequest": {
          "validityPeriod": {
            "start": "2025-10-10",
            "end": "2025-10-24"
          },
          "quantity": {
            "value": 28,
            "unit": "tablet"
          }
        }
      }
    },
    {
      "request": {
        "method": "PUT",
        "url": "MedicationRequest/medreq-antipsych-same-001-b"
      },
      "resource": {
        "resourceType": "MedicationRequest",
        "id": "medreq-antipsych-same-001-b",
        "status": "completed",
        "intent": "order",
        "medicationCodeableConcept": {
          "coding": [
            {
              "system": "http://www.whocc.no/atc",
              "code": "N05AH03",
              "display": "Olanzapine"
            }
          ],
          "text": "Olanzapine 10mg"
        },
        "subject": {
          "reference": "Patient/patient-antipsych-same-001"
        },
        "encounter": {
          "reference": "Encounter/encounter-antipsych-same-001-b"
        },
        "authoredOn": "2025-10-18T14:30:00+08:00",
        "dispenseRequest": {
          "validityPeriod": {
            "start": "2025-10-18",
            "end": "2025-11-01"
          },
          "quantity": {
            "value": 28,
            "unit": "tablet"
          }
        }
      }
    },
    {
      "request": {
        "method": "PUT",
        "url": "MedicationRequest/medreq-antipsych-same-002-a"
      },
      "resource": {
        "resourceType": "MedicationRequest",
        "id": "medreq-antipsych-same-002-a",
        "status": "completed",
        "intent": "order",
        "medicationCodeableConcept": {
          "coding": [
            {
              "system": "http://www.whocc.no/atc",
              "code": "N05AH02",
              "display": "Clozapine"
            }
          ],
          "text": "Clozapine 100mg"
        },
        "subject": {
          "reference": "Patient/patient-antipsych-same-002"
        },
        "encounter": {
          "reference": "Encounter/encounter-antipsych-same-002-a"
        },
        "authoredOn": "2025-11-05T11:00:00+08:00",
        "dispenseRequest": {
          "validityPeriod": {
            "start": "2025-11-05",
            "end": "2025-11-19"
          },
          "quantity": {
            "value": 28,
            "unit": "tablet"
          }
        }
      }
    },
    {
      "request": {
        "method": "PUT",
        "url": "MedicationRequest/medreq-antipsych-same-002-b"
      },
      "resource": {
        "resourceType": "MedicationRequest",
        "id": "medreq-antipsych-same-002-b",
        "status": "completed",
        "intent": "order",
        "medicationCodeableConcept": {
          "coding": [
            {
              "system": "http://www.whocc.no/atc",
              "code": "N05AX12",
              "display": "Aripiprazole"
            }
          ],
          "text": "Aripiprazole 15mg"
        },
        "subject": {
          "reference": "Patient/patient-antipsych-same-002"
        },
        "encounter": {
          "reference": "Encounter/encounter-antipsych-same-002-b"
        },
        "authoredOn": "2025-11-12T15:30:00+08:00",
        "dispenseRequest": {
          "validityPeriod": {
            "start": "2025-11-12",
            "end": "2025-11-26"
          },
          "quantity": {
            "value": 28,
            "unit": "tablet"
          }
        }
      }
    },
    {
      "request": {
        "method": "PUT",
        "url": "MedicationRequest/medreq-antipsych-same-003-a"
      },
      "resource": {
        "resourceType": "MedicationRequest",
        "id": "medreq-antipsych-same-003-a",
        "status": "completed",
        "intent": "order",
        "medicationCodeableConcept": {
          "coding": [
            {
              "system": "http://www.whocc.no/atc",
              "code": "N05AX08",
              "display": "Risperidone"
            }
          ],
          "text": "Risperidone 3mg"
        },
        "subject": {
          "reference": "Patient/patient-antipsych-same-003"
        },
        "encounter": {
          "reference": "Encounter/encounter-antipsych-same-003-a"
        },
        "authoredOn": "2025-12-01T09:30:00+08:00",
        "dispenseRequest": {
          "validityPeriod": {
            "start": "2025-12-01",
            "end": "2025-12-15"
          },
          "quantity": {
            "value": 28,
            "unit": "tablet"
          }
        }
      }
    },
    {
      "request": {
        "method": "PUT",
        "url": "MedicationRequest/medreq-antipsych-same-003-b"
      },
      "resource": {
        "resourceType": "MedicationRequest",
        "id": "medreq-antipsych-same-003-b",
        "status": "completed",
        "intent": "order",
        "medicationCodeableConcept": {
          "coding": [
            {
              "system": "http://www.whocc.no/atc",
              "code": "N05AE04",
              "display": "Ziprasidone"
            }
          ],
          "text": "Ziprasidone 80mg"
        },
        "subject": {
          "reference": "Patient/patient-antipsych-same-003"
        },
        "encounter": {
          "reference": "Encounter/encounter-antipsych-same-003-b"
        },
        "authoredOn": "2025-12-08T14:00:00+08:00",
        "dispenseRequest": {
          "validityPeriod": {
            "start": "2025-12-08",
            "end": "2025-12-22"
          },
          "quantity": {
            "value": 28,
            "unit": "tablet"
          }
        }
      }
    }
  ]
}
