{
  "resourceType": "Bundle",
  "type": "transaction",
  "entry": [
    {
      "fullUrl": "urn:uuid:patient-dm-1",
      "resource": {
        "resourceType": "Patient",
        "id": "DM-CROSS-P1",
        "gender": "female",
        "birthDate": "1960-05-12",
        "name": [{"text": "林秀英", "family": "Lin", "given": ["Xiuying"]}]
      },
      "request": {"method": "PUT", "url": "Patient/DM-CROSS-P1"}
    },
    {
      "fullUrl": "urn:uuid:patient-dm-2",
      "resource": {
        "resourceType": "Patient",
        "id": "DM-CROSS-P2",
        "gender": "male",
        "birthDate": "1958-09-25",
        "name": [{"text": "陳建德", "family": "Chen", "given": ["Jiande"]}]
      },
      "request": {"method": "PUT", "url": "Patient/DM-CROSS-P2"}
    },
    {
      "fullUrl": "urn:uuid:patient-dm-3",
      "resource": {
        "resourceType": "Patient",
        "id": "DM-CROSS-P3",
        "gender": "female",
        "birthDate": "1962-12-08",
        "name": [{"text": "王美玲", "family": "Wang", "given": ["Meiling"]}]
      },
      "request": {"method": "PUT", "url": "Patient/DM-CROSS-P3"}
    },
    {
      "fullUrl": "urn:uuid:enc-dm-1a",
      "resource": {
        "resourceType": "Encounter",
        "id": "DM-E1A",
        "status": "finished",
        "class": {"system": "http://terminology.hl7.org/CodeSystem/v3-ActCode", "code": "AMB"},
        "subject": {"reference": "Patient/DM-CROSS-P1"},
        "serviceProvider": {"reference": "Organization/HOSPITAL-C"},
        "period": {"start": "2025-10-03T09:00:00+08:00", "end": "2025-10-03T09:30:00+08:00"}
      },
      "request": {"method": "PUT", "url": "Encounter/DM-E1A"}
    },
    {
      "fullUrl": "urn:uuid:med-dm-1a",
      "resource": {
        "resourceType": "MedicationRequest",
        "id": "DM-M1A",
        "status": "completed",
        "intent": "order",
        "medicationCodeableConcept": {
          "coding": [{"system": "http://www.whocc.no/atc", "code": "A10BA02", "display": "Metformin"}],
          "text": "庫魯化 Metformin 500mg"
        },
        "subject": {"reference": "Patient/DM-CROSS-P1"},
        "encounter": {"reference": "Encounter/DM-E1A"},
        "authoredOn": "2025-10-03T09:00:00+08:00",
        "dosageInstruction": [{
          "timing": {"repeat": {"boundsPeriod": {"start": "2025-10-03", "end": "2025-10-30"}, "frequency": 2, "period": 1, "periodUnit": "d"}},
          "doseAndRate": [{"doseQuantity": {"value": 1, "unit": "tablet"}}]
        }],
        "dispenseRequest": {
          "validityPeriod": {"start": "2025-10-03", "end": "2025-10-30"},
          "quantity": {"value": 56, "unit": "tablet"},
          "expectedSupplyDuration": {"value": 28, "unit": "days", "system": "http://unitsofmeasure.org", "code": "d"}
        }
      },
      "request": {"method": "PUT", "url": "MedicationRequest/DM-M1A"}
    },
    {
      "fullUrl": "urn:uuid:enc-dm-1b",
      "resource": {
        "resourceType": "Encounter",
        "id": "DM-E1B",
        "status": "finished",
        "class": {"system": "http://terminology.hl7.org/CodeSystem/v3-ActCode", "code": "AMB"},
        "subject": {"reference": "Patient/DM-CROSS-P1"},
        "serviceProvider": {"reference": "Organization/HOSPITAL-D"},
        "period": {"start": "2025-10-11T14:00:00+08:00", "end": "2025-10-11T14:30:00+08:00"}
      },
      "request": {"method": "PUT", "url": "Encounter/DM-E1B"}
    },
    {
      "fullUrl": "urn:uuid:med-dm-1b",
      "resource": {
        "resourceType": "MedicationRequest",
        "id": "DM-M1B",
        "status": "completed",
        "intent": "order",
        "medicationCodeableConcept": {
          "coding": [{"system": "http://www.whocc.no/atc", "code": "A10BB12", "display": "Glimepiride"}],
          "text": "瑪爾胰 Glimepiride 2mg"
        },
        "subject": {"reference": "Patient/DM-CROSS-P1"},
        "encounter": {"reference": "Encounter/DM-E1B"},
        "authoredOn": "2025-10-11T14:00:00+08:00",
        "dosageInstruction": [{
          "timing": {"repeat": {"boundsPeriod": {"start": "2025-10-11", "end": "2025-11-07"}, "frequency": 1, "period": 1, "periodUnit": "d"}},
          "doseAndRate": [{"doseQuantity": {"value": 1, "unit": "tablet"}}]
        }],
        "dispenseRequest": {
          "validityPeriod": {"start": "2025-10-11", "end": "2025-11-07"},
          "quantity": {"value": 28, "unit": "tablet"},
          "expectedSupplyDuration": {"value": 28, "unit": "days", "system": "http://unitsofmeasure.org", "code": "d"}
        }
      },
      "request": {"method": "PUT", "url": "MedicationRequest/DM-M1B"}
    },
    {
      "fullUrl": "urn:uuid:enc-dm-2a",
      "resource": {
        "resourceType": "Encounter",
        "id": "DM-E2A",
        "status": "finished",
        "class": {"system": "http://terminology.hl7.org/CodeSystem/v3-ActCode", "code": "AMB"},
        "subject": {"reference": "Patient/DM-CROSS-P2"},
        "serviceProvider": {"reference": "Organization/HOSPITAL-C"},
        "period": {"start": "2025-10-05T10:00:00+08:00", "end": "2025-10-05T10:30:00+08:00"}
      },
      "request": {"method": "PUT", "url": "Encounter/DM-E2A"}
    },
    {
      "fullUrl": "urn:uuid:med-dm-2a",
      "resource": {
        "resourceType": "MedicationRequest",
        "id": "DM-M2A",
        "status": "completed",
        "intent": "order",
        "medicationCodeableConcept": {
          "coding": [{"system": "http://www.whocc.no/atc", "code": "A10BG03", "display": "Pioglitazone"}],
          "text": "愛妥糖 Pioglitazone 15mg"
        },
        "subject": {"reference": "Patient/DM-CROSS-P2"},
        "encounter": {"reference": "Encounter/DM-E2A"},
        "authoredOn": "2025-10-05T10:00:00+08:00",
        "dosageInstruction": [{
          "timing": {"repeat": {"boundsPeriod": {"start": "2025-10-05", "end": "2025-11-01"}, "frequency": 1, "period": 1, "periodUnit": "d"}},
          "doseAndRate": [{"doseQuantity": {"value": 1, "unit": "tablet"}}]
        }],
        "dispenseRequest": {
          "validityPeriod": {"start": "2025-10-05", "end": "2025-11-01"},
          "quantity": {"value": 28, "unit": "tablet"},
          "expectedSupplyDuration": {"value": 28, "unit": "days", "system": "http://unitsofmeasure.org", "code": "d"}
        }
      },
      "request": {"method": "PUT", "url": "MedicationRequest/DM-M2A"}
    },
    {
      "fullUrl": "urn:uuid:enc-dm-2b",
      "resource": {
        "resourceType": "Encounter",
        "id": "DM-E2B",
        "status": "finished",
        "class": {"system": "http://terminology.hl7.org/CodeSystem/v3-ActCode", "code": "AMB"},
        "subject": {"reference": "Patient/DM-CROSS-P2"},
        "serviceProvider": {"reference": "Organization/HOSPITAL-D"},
        "period": {"start": "2025-10-13T11:00:00+08:00", "end": "2025-10-13T11:30:00+08:00"}
      },
      "request": {"method": "PUT", "url": "Encounter/DM-E2B"}
    },
    {
      "fullUrl": "urn:uuid:med-dm-2b",
      "resource": {
        "resourceType": "MedicationRequest",
        "id": "DM-M2B",
        "status": "completed",
        "intent": "order",
        "medicationCodeableConcept": {
          "coding": [{"system": "http://www.whocc.no/atc", "code": "A10BA02", "display": "Metformin"}],
          "text": "庫魯化 Metformin 850mg"
        },
        "subject": {"reference": "Patient/DM-CROSS-P2"},
        "encounter": {"reference": "Encounter/DM-E2B"},
        "authoredOn": "2025-10-13T11:00:00+08:00",
        "dosageInstruction": [{
          "timing": {"repeat": {"boundsPeriod": {"start": "2025-10-13", "end": "2025-11-09"}, "frequency": 2, "period": 1, "periodUnit": "d"}},
          "doseAndRate": [{"doseQuantity": {"value": 1, "unit": "tablet"}}]
        }],
        "dispenseRequest": {
          "validityPeriod": {"start": "2025-10-13", "end": "2025-11-09"},
          "quantity": {"value": 56, "unit": "tablet"},
          "expectedSupplyDuration": {"value": 28, "unit": "days", "system": "http://unitsofmeasure.org", "code": "d"}
        }
      },
      "request": {"method": "PUT", "url": "MedicationRequest/DM-M2B"}
    },
    {
      "fullUrl": "urn:uuid:enc-dm-3a",
      "resource": {
        "resourceType": "Encounter",
        "id": "DM-E3A",
        "status": "finished",
        "class": {"system": "http://terminology.hl7.org/CodeSystem/v3-ActCode", "code": "AMB"},
        "subject": {"reference": "Patient/DM-CROSS-P3"},
        "serviceProvider": {"reference": "Organization/HOSPITAL-C"},
        "period": {"start": "2025-10-07T15:00:00+08:00", "end": "2025-10-07T15:30:00+08:00"}
      },
      "request": {"method": "PUT", "url": "Encounter/DM-E3A"}
    },
    {
      "fullUrl": "urn:uuid:med-dm-3a",
      "resource": {
        "resourceType": "MedicationRequest",
        "id": "DM-M3A",
        "status": "completed",
        "intent": "order",
        "medicationCodeableConcept": {
          "coding": [{"system": "http://www.whocc.no/atc", "code": "A10BJ01", "display": "Exenatide"}],
          "text": "易週糖 Exenatide 2mg (注射)"
        },
        "subject": {"reference": "Patient/DM-CROSS-P3"},
        "encounter": {"reference": "Encounter/DM-E3A"},
        "authoredOn": "2025-10-07T15:00:00+08:00",
        "dosageInstruction": [{
          "timing": {"repeat": {"boundsPeriod": {"start": "2025-10-07", "end": "2025-11-03"}, "frequency": 1, "period": 7, "periodUnit": "d"}},
          "doseAndRate": [{"doseQuantity": {"value": 2, "unit": "mg"}}]
        }],
        "dispenseRequest": {
          "validityPeriod": {"start": "2025-10-07", "end": "2025-11-03"},
          "quantity": {"value": 4, "unit": "pen"},
          "expectedSupplyDuration": {"value": 28, "unit": "days", "system": "http://unitsofmeasure.org", "code": "d"}
        }
      },
      "request": {"method": "PUT", "url": "MedicationRequest/DM-M3A"}
    },
    {
      "fullUrl": "urn:uuid:enc-dm-3b",
      "resource": {
        "resourceType": "Encounter",
        "id": "DM-E3B",
        "status": "finished",
        "class": {"system": "http://terminology.hl7.org/CodeSystem/v3-ActCode", "code": "AMB"},
        "subject": {"reference": "Patient/DM-CROSS-P3"},
        "serviceProvider": {"reference": "Organization/HOSPITAL-D"},
        "period": {"start": "2025-10-15T16:00:00+08:00", "end": "2025-10-15T16:30:00+08:00"}
      },
      "request": {"method": "PUT", "url": "Encounter/DM-E3B"}
    },
    {
      "fullUrl": "urn:uuid:med-dm-3b",
      "resource": {
        "resourceType": "MedicationRequest",
        "id": "DM-M3B",
        "status": "completed",
        "intent": "order",
        "medicationCodeableConcept": {
          "coding": [{"system": "http://www.whocc.no/atc", "code": "A10BB12", "display": "Glimepiride"}],
          "text": "瑪爾胰 Glimepiride 4mg"
        },
        "subject": {"reference": "Patient/DM-CROSS-P3"},
        "encounter": {"reference": "Encounter/DM-E3B"},
        "authoredOn": "2025-10-15T16:00:00+08:00",
        "dosageInstruction": [{
          "timing": {"repeat": {"boundsPeriod": {"start": "2025-10-15", "end": "2025-11-11"}, "frequency": 1, "period": 1, "periodUnit": "d"}},
          "doseAndRate": [{"doseQuantity": {"value": 1, "unit": "tablet"}}]
        }],
        "dispenseRequest": {
          "validityPeriod": {"start": "2025-10-15", "end": "2025-11-11"},
          "quantity": {"value": 28, "unit": "tablet"},
          "expectedSupplyDuration": {"value": 28, "unit": "days", "system": "http://unitsofmeasure.org", "code": "d"}
        }
      },
      "request": {"method": "PUT", "url": "MedicationRequest/DM-M3B"}
    }
  ]
}
