{
  "resourceType": "Bundle",
  "type": "transaction",
  "entry": [
    {
      "fullUrl": "urn:uuid:diabetes-patient-001",
      "resource": {
        "resourceType": "Patient",
        "id": "diabetes-patient-001",
        "identifier": [{
          "system": "http://hospital.example.org/patients",
          "value": "DM-P001"
        }],
        "name": [{ "family": "王", "given": ["小明"] }],
        "gender": "male",
        "birthDate": "1965-03-15"
      },
      "request": { "method": "PUT", "url": "Patient/diabetes-patient-001" }
    },
    {
      "fullUrl": "urn:uuid:diabetes-encounter-001",
      "resource": {
        "resourceType": "Encounter",
        "id": "diabetes-encounter-001",
        "status": "finished",
        "class": {
          "system": "http://terminology.hl7.org/CodeSystem/v3-ActCode",
          "code": "AMB",
          "display": "ambulatory"
        },
        "subject": { "reference": "Patient/diabetes-patient-001" },
        "period": {
          "start": "2025-10-15T09:00:00Z",
          "end": "2025-10-15T10:30:00Z"
        }
      },
      "request": { "method": "PUT", "url": "Encounter/diabetes-encounter-001" }
    },
    {
      "fullUrl": "urn:uuid:diabetes-condition-001",
      "resource": {
        "resourceType": "Condition",
        "id": "diabetes-condition-001",
        "clinicalStatus": {
          "coding": [{
            "system": "http://terminology.hl7.org/CodeSystem/condition-clinical",
            "code": "active"
          }]
        },
        "code": {
          "coding": [{
            "system": "http://hl7.org/fhir/sid/icd-10-cm",
            "code": "E11.9",
            "display": "Type 2 diabetes mellitus without complications"
          }]
        },
        "subject": { "reference": "Patient/diabetes-patient-001" },
        "encounter": { "reference": "Encounter/diabetes-encounter-001" }
      },
      "request": { "method": "PUT", "url": "Condition/diabetes-condition-001" }
    },
    {
      "fullUrl": "urn:uuid:diabetes-medication-001",
      "resource": {
        "resourceType": "MedicationRequest",
        "id": "diabetes-medication-001",
        "status": "completed",
        "intent": "order",
        "medicationCodeableConcept": {
          "coding": [{
            "system": "http://www.whocc.no/atc",
            "code": "A10BA02",
            "display": "Metformin"
          }]
        },
        "subject": { "reference": "Patient/diabetes-patient-001" },
        "encounter": { "reference": "Encounter/diabetes-encounter-001" }
      },
      "request": { "method": "PUT", "url": "MedicationRequest/diabetes-medication-001" }
    },
    {
      "fullUrl": "urn:uuid:diabetes-observation-001",
      "resource": {
        "resourceType": "Observation",
        "id": "diabetes-observation-001",
        "status": "final",
        "code": {
          "coding": [{
            "system": "http://loinc.org",
            "code": "4548-4",
            "display": "Hemoglobin A1c/Hemoglobin.total in Blood"
          }]
        },
        "subject": { "reference": "Patient/diabetes-patient-001" },
        "effectiveDateTime": "2025-10-15T09:30:00Z",
        "valueQuantity": {
          "value": 7.2,
          "unit": "%",
          "system": "http://unitsofmeasure.org",
          "code": "%"
        }
      },
      "request": { "method": "PUT", "url": "Observation/diabetes-observation-001" }
    },
    {
      "fullUrl": "urn:uuid:diabetes-patient-002",
      "resource": {
        "resourceType": "Patient",
        "id": "diabetes-patient-002",
        "identifier": [{
          "system": "http://hospital.example.org/patients",
          "value": "DM-P002"
        }],
        "name": [{ "family": "李", "given": ["小華"] }],
        "gender": "female",
        "birthDate": "1970-08-22"
      },
      "request": { "method": "PUT", "url": "Patient/diabetes-patient-002" }
    },
    {
      "fullUrl": "urn:uuid:diabetes-encounter-002",
      "resource": {
        "resourceType": "Encounter",
        "id": "diabetes-encounter-002",
        "status": "finished",
        "class": {
          "system": "http://terminology.hl7.org/CodeSystem/v3-ActCode",
          "code": "AMB",
          "display": "ambulatory"
        },
        "subject": { "reference": "Patient/diabetes-patient-002" },
        "period": {
          "start": "2025-10-20T10:00:00Z",
          "end": "2025-10-20T11:00:00Z"
        }
      },
      "request": { "method": "PUT", "url": "Encounter/diabetes-encounter-002" }
    },
    {
      "fullUrl": "urn:uuid:diabetes-condition-002",
      "resource": {
        "resourceType": "Condition",
        "id": "diabetes-condition-002",
        "clinicalStatus": {
          "coding": [{
            "system": "http://terminology.hl7.org/CodeSystem/condition-clinical",
            "code": "active"
          }]
        },
        "code": {
          "coding": [{
            "system": "http://hl7.org/fhir/sid/icd-10-cm",
            "code": "E11.65",
            "display": "Type 2 diabetes mellitus with hyperglycemia"
          }]
        },
        "subject": { "reference": "Patient/diabetes-patient-002" },
        "encounter": { "reference": "Encounter/diabetes-encounter-002" }
      },
      "request": { "method": "PUT", "url": "Condition/diabetes-condition-002" }
    },
    {
      "fullUrl": "urn:uuid:diabetes-medication-002",
      "resource": {
        "resourceType": "MedicationRequest",
        "id": "diabetes-medication-002",
        "status": "completed",
        "intent": "order",
        "medicationCodeableConcept": {
          "coding": [{
            "system": "http://www.whocc.no/atc",
            "code": "A10BH01",
            "display": "Sitagliptin"
          }]
        },
        "subject": { "reference": "Patient/diabetes-patient-002" },
        "encounter": { "reference": "Encounter/diabetes-encounter-002" }
      },
      "request": { "method": "PUT", "url": "MedicationRequest/diabetes-medication-002" }
    },
    {
      "fullUrl": "urn:uuid:diabetes-observation-002",
      "resource": {
        "resourceType": "Observation",
        "id": "diabetes-observation-002",
        "status": "final",
        "code": {
          "coding": [{
            "system": "http://loinc.org",
            "code": "4548-4",
            "display": "Hemoglobin A1c/Hemoglobin.total in Blood"
          }]
        },
        "subject": { "reference": "Patient/diabetes-patient-002" },
        "effectiveDateTime": "2025-10-20T10:30:00Z",
        "valueQuantity": {
          "value": 8.1,
          "unit": "%",
          "system": "http://unitsofmeasure.org",
          "code": "%"
        }
      },
      "request": { "method": "PUT", "url": "Observation/diabetes-observation-002" }
    },
    {
      "fullUrl": "urn:uuid:diabetes-patient-003",
      "resource": {
        "resourceType": "Patient",
        "id": "diabetes-patient-003",
        "identifier": [{
          "system": "http://hospital.example.org/patients",
          "value": "DM-P003"
        }],
        "name": [{ "family": "張", "given": ["小芳"] }],
        "gender": "female",
        "birthDate": "1958-12-05"
      },
      "request": { "method": "PUT", "url": "Patient/diabetes-patient-003" }
    },
    {
      "fullUrl": "urn:uuid:diabetes-encounter-003",
      "resource": {
        "resourceType": "Encounter",
        "id": "diabetes-encounter-003",
        "status": "finished",
        "class": {
          "system": "http://terminology.hl7.org/CodeSystem/v3-ActCode",
          "code": "AMB",
          "display": "ambulatory"
        },
        "subject": { "reference": "Patient/diabetes-patient-003" },
        "period": {
          "start": "2025-11-05T14:00:00Z",
          "end": "2025-11-05T15:00:00Z"
        }
      },
      "request": { "method": "PUT", "url": "Encounter/diabetes-encounter-003" }
    },
    {
      "fullUrl": "urn:uuid:diabetes-condition-003",
      "resource": {
        "resourceType": "Condition",
        "id": "diabetes-condition-003",
        "clinicalStatus": {
          "coding": [{
            "system": "http://terminology.hl7.org/CodeSystem/condition-clinical",
            "code": "active"
          }]
        },
        "code": {
          "coding": [{
            "system": "http://hl7.org/fhir/sid/icd-10-cm",
            "code": "E11.22",
            "display": "Type 2 diabetes mellitus with diabetic chronic kidney disease"
          }]
        },
        "subject": { "reference": "Patient/diabetes-patient-003" },
        "encounter": { "reference": "Encounter/diabetes-encounter-003" }
      },
      "request": { "method": "PUT", "url": "Condition/diabetes-condition-003" }
    },
    {
      "fullUrl": "urn:uuid:diabetes-medication-003",
      "resource": {
        "resourceType": "MedicationRequest",
        "id": "diabetes-medication-003",
        "status": "completed",
        "intent": "order",
        "medicationCodeableConcept": {
          "coding": [{
            "system": "http://www.whocc.no/atc",
            "code": "A10AB01",
            "display": "Insulin (human)"
          }]
        },
        "subject": { "reference": "Patient/diabetes-patient-003" },
        "encounter": { "reference": "Encounter/diabetes-encounter-003" }
      },
      "request": { "method": "PUT", "url": "MedicationRequest/diabetes-medication-003" }
    },
    {
      "fullUrl": "urn:uuid:diabetes-observation-003",
      "resource": {
        "resourceType": "Observation",
        "id": "diabetes-observation-003",
        "status": "final",
        "code": {
          "coding": [{
            "system": "http://loinc.org",
            "code": "4548-4",
            "display": "Hemoglobin A1c/Hemoglobin.total in Blood"
          }]
        },
        "subject": { "reference": "Patient/diabetes-patient-003" },
        "effectiveDateTime": "2025-11-05T14:30:00Z",
        "valueQuantity": {
          "value": 9.3,
          "unit": "%",
          "system": "http://unitsofmeasure.org",
          "code": "%"
        }
      },
      "request": { "method": "PUT", "url": "Observation/diabetes-observation-003" }
    },
    {
      "fullUrl": "urn:uuid:diabetes-patient-004",
      "resource": {
        "resourceType": "Patient",
        "id": "diabetes-patient-004",
        "identifier": [{
          "system": "http://hospital.example.org/patients",
          "value": "DM-P004"
        }],
        "name": [{ "family": "陳", "given": ["大明"] }],
        "gender": "male",
        "birthDate": "1972-06-18"
      },
      "request": { "method": "PUT", "url": "Patient/diabetes-patient-004" }
    },
    {
      "fullUrl": "urn:uuid:diabetes-encounter-004",
      "resource": {
        "resourceType": "Encounter",
        "id": "diabetes-encounter-004",
        "status": "finished",
        "class": {
          "system": "http://terminology.hl7.org/CodeSystem/v3-ActCode",
          "code": "AMB",
          "display": "ambulatory"
        },
        "subject": { "reference": "Patient/diabetes-patient-004" },
        "period": {
          "start": "2025-11-12T09:30:00Z",
          "end": "2025-11-12T10:30:00Z"
        }
      },
      "request": { "method": "PUT", "url": "Encounter/diabetes-encounter-004" }
    },
    {
      "fullUrl": "urn:uuid:diabetes-condition-004",
      "resource": {
        "resourceType": "Condition",
        "id": "diabetes-condition-004",
        "clinicalStatus": {
          "coding": [{
            "system": "http://terminology.hl7.org/CodeSystem/condition-clinical",
            "code": "active"
          }]
        },
        "code": {
          "coding": [{
            "system": "http://hl7.org/fhir/sid/icd-10-cm",
            "code": "E11.9",
            "display": "Type 2 diabetes mellitus without complications"
          }]
        },
        "subject": { "reference": "Patient/diabetes-patient-004" },
        "encounter": { "reference": "Encounter/diabetes-encounter-004" }
      },
      "request": { "method": "PUT", "url": "Condition/diabetes-condition-004" }
    },
    {
      "fullUrl": "urn:uuid:diabetes-medication-004",
      "resource": {
        "resourceType": "MedicationRequest",
        "id": "diabetes-medication-004",
        "status": "completed",
        "intent": "order",
        "medicationCodeableConcept": {
          "coding": [{
            "system": "http://www.whocc.no/atc",
            "code": "A10BA02",
            "display": "Metformin"
          }]
        },
        "subject": { "reference": "Patient/diabetes-patient-004" },
        "encounter": { "reference": "Encounter/diabetes-encounter-004" }
      },
      "request": { "method": "PUT", "url": "MedicationRequest/diabetes-medication-004" }
    },
    {
      "fullUrl": "urn:uuid:diabetes-observation-004",
      "resource": {
        "resourceType": "Observation",
        "id": "diabetes-observation-004",
        "status": "final",
        "code": {
          "coding": [{
            "system": "http://loinc.org",
            "code": "4548-4",
            "display": "Hemoglobin A1c/Hemoglobin.total in Blood"
          }]
        },
        "subject": { "reference": "Patient/diabetes-patient-004" },
        "effectiveDateTime": "2025-11-12T10:00:00Z",
        "valueQuantity": {
          "value": 6.8,
          "unit": "%",
          "system": "http://unitsofmeasure.org",
          "code": "%"
        }
      },
      "request": { "method": "PUT", "url": "Observation/diabetes-observation-004" }
    },
    {
      "fullUrl": "urn:uuid:diabetes-patient-005",
      "resource": {
        "resourceType": "Patient",
        "id": "diabetes-patient-005",
        "identifier": [{
          "system": "http://hospital.example.org/patients",
          "value": "DM-P005"
        }],
        "name": [{ "family": "林", "given": ["小玉"] }],
        "gender": "female",
        "birthDate": "1963-04-30"
      },
      "request": { "method": "PUT", "url": "Patient/diabetes-patient-005" }
    },
    {
      "fullUrl": "urn:uuid:diabetes-encounter-005",
      "resource": {
        "resourceType": "Encounter",
        "id": "diabetes-encounter-005",
        "status": "finished",
        "class": {
          "system": "http://terminology.hl7.org/CodeSystem/v3-ActCode",
          "code": "AMB",
          "display": "ambulatory"
        },
        "subject": { "reference": "Patient/diabetes-patient-005" },
        "period": {
          "start": "2025-11-18T11:00:00Z",
          "end": "2025-11-18T12:00:00Z"
        }
      },
      "request": { "method": "PUT", "url": "Encounter/diabetes-encounter-005" }
    },
    {
      "fullUrl": "urn:uuid:diabetes-condition-005",
      "resource": {
        "resourceType": "Condition",
        "id": "diabetes-condition-005",
        "clinicalStatus": {
          "coding": [{
            "system": "http://terminology.hl7.org/CodeSystem/condition-clinical",
            "code": "active"
          }]
        },
        "code": {
          "coding": [{
            "system": "http://hl7.org/fhir/sid/icd-10-cm",
            "code": "E11.36",
            "display": "Type 2 diabetes mellitus with diabetic cataract"
          }]
        },
        "subject": { "reference": "Patient/diabetes-patient-005" },
        "encounter": { "reference": "Encounter/diabetes-encounter-005" }
      },
      "request": { "method": "PUT", "url": "Condition/diabetes-condition-005" }
    },
    {
      "fullUrl": "urn:uuid:diabetes-medication-005",
      "resource": {
        "resourceType": "MedicationRequest",
        "id": "diabetes-medication-005",
        "status": "completed",
        "intent": "order",
        "medicationCodeableConcept": {
          "coding": [{
            "system": "http://www.whocc.no/atc",
            "code": "A10BG03",
            "display": "Pioglitazone"
          }]
        },
        "subject": { "reference": "Patient/diabetes-patient-005" },
        "encounter": { "reference": "Encounter/diabetes-encounter-005" }
      },
      "request": { "method": "PUT", "url": "MedicationRequest/diabetes-medication-005" }
    },
    {
      "fullUrl": "urn:uuid:diabetes-observation-005",
      "resource": {
        "resourceType": "Observation",
        "id": "diabetes-observation-005",
        "status": "final",
        "code": {
          "coding": [{
            "system": "http://loinc.org",
            "code": "4548-4",
            "display": "Hemoglobin A1c/Hemoglobin.total in Blood"
          }]
        },
        "subject": { "reference": "Patient/diabetes-patient-005" },
        "effectiveDateTime": "2025-11-18T11:30:00Z",
        "valueQuantity": {
          "value": 7.5,
          "unit": "%",
          "system": "http://unitsofmeasure.org",
          "code": "%"
        }
      },
      "request": { "method": "PUT", "url": "Observation/diabetes-observation-005" }
    },
    {
      "fullUrl": "urn:uuid:diabetes-patient-006",
      "resource": {
        "resourceType": "Patient",
        "id": "diabetes-patient-006",
        "identifier": [{
          "system": "http://hospital.example.org/patients",
          "value": "DM-P006"
        }],
        "name": [{ "family": "黃", "given": ["大華"] }],
        "gender": "male",
        "birthDate": "1968-09-14"
      },
      "request": { "method": "PUT", "url": "Patient/diabetes-patient-006" }
    },
    {
      "fullUrl": "urn:uuid:diabetes-encounter-006",
      "resource": {
        "resourceType": "Encounter",
        "id": "diabetes-encounter-006",
        "status": "finished",
        "class": {
          "system": "http://terminology.hl7.org/CodeSystem/v3-ActCode",
          "code": "AMB",
          "display": "ambulatory"
        },
        "subject": { "reference": "Patient/diabetes-patient-006" },
        "period": {
          "start": "2025-11-25T13:00:00Z",
          "end": "2025-11-25T14:00:00Z"
        }
      },
      "request": { "method": "PUT", "url": "Encounter/diabetes-encounter-006" }
    },
    {
      "fullUrl": "urn:uuid:diabetes-condition-006",
      "resource": {
        "resourceType": "Condition",
        "id": "diabetes-condition-006",
        "clinicalStatus": {
          "coding": [{
            "system": "http://terminology.hl7.org/CodeSystem/condition-clinical",
            "code": "active"
          }]
        },
        "code": {
          "coding": [{
            "system": "http://hl7.org/fhir/sid/icd-10-cm",
            "code": "E11.40",
            "display": "Type 2 diabetes mellitus with diabetic neuropathy, unspecified"
          }]
        },
        "subject": { "reference": "Patient/diabetes-patient-006" },
        "encounter": { "reference": "Encounter/diabetes-encounter-006" }
      },
      "request": { "method": "PUT", "url": "Condition/diabetes-condition-006" }
    },
    {
      "fullUrl": "urn:uuid:diabetes-medication-006",
      "resource": {
        "resourceType": "MedicationRequest",
        "id": "diabetes-medication-006",
        "status": "completed",
        "intent": "order",
        "medicationCodeableConcept": {
          "coding": [{
            "system": "http://www.whocc.no/atc",
            "code": "A10BD07",
            "display": "Metformin and sitagliptin"
          }]
        },
        "subject": { "reference": "Patient/diabetes-patient-006" },
        "encounter": { "reference": "Encounter/diabetes-encounter-006" }
      },
      "request": { "method": "PUT", "url": "MedicationRequest/diabetes-medication-006" }
    },
    {
      "fullUrl": "urn:uuid:diabetes-observation-006",
      "resource": {
        "resourceType": "Observation",
        "id": "diabetes-observation-006",
        "status": "final",
        "code": {
          "coding": [{
            "system": "http://loinc.org",
            "code": "4548-4",
            "display": "Hemoglobin A1c/Hemoglobin.total in Blood"
          }]
        },
        "subject": { "reference": "Patient/diabetes-patient-006" },
        "effectiveDateTime": "2025-11-25T13:30:00Z",
        "valueQuantity": {
          "value": 8.5,
          "unit": "%",
          "system": "http://unitsofmeasure.org",
          "code": "%"
        }
      },
      "request": { "method": "PUT", "url": "Observation/diabetes-observation-006" }
    },
    {
      "fullUrl": "urn:uuid:diabetes-patient-007",
      "resource": {
        "resourceType": "Patient",
        "id": "diabetes-patient-007",
        "identifier": [{
          "system": "http://hospital.example.org/patients",
          "value": "DM-P007"
        }],
        "name": [{ "family": "吳", "given": ["小英"] }],
        "gender": "female",
        "birthDate": "1975-02-08"
      },
      "request": { "method": "PUT", "url": "Patient/diabetes-patient-007" }
    },
    {
      "fullUrl": "urn:uuid:diabetes-encounter-007",
      "resource": {
        "resourceType": "Encounter",
        "id": "diabetes-encounter-007",
        "status": "finished",
        "class": {
          "system": "http://terminology.hl7.org/CodeSystem/v3-ActCode",
          "code": "AMB",
          "display": "ambulatory"
        },
        "subject": { "reference": "Patient/diabetes-patient-007" },
        "period": {
          "start": "2025-12-02T08:30:00Z",
          "end": "2025-12-02T09:30:00Z"
        }
      },
      "request": { "method": "PUT", "url": "Encounter/diabetes-encounter-007" }
    },
    {
      "fullUrl": "urn:uuid:diabetes-condition-007",
      "resource": {
        "resourceType": "Condition",
        "id": "diabetes-condition-007",
        "clinicalStatus": {
          "coding": [{
            "system": "http://terminology.hl7.org/CodeSystem/condition-clinical",
            "code": "active"
          }]
        },
        "code": {
          "coding": [{
            "system": "http://hl7.org/fhir/sid/icd-10-cm",
            "code": "E11.9",
            "display": "Type 2 diabetes mellitus without complications"
          }]
        },
        "subject": { "reference": "Patient/diabetes-patient-007" },
        "encounter": { "reference": "Encounter/diabetes-encounter-007" }
      },
      "request": { "method": "PUT", "url": "Condition/diabetes-condition-007" }
    },
    {
      "fullUrl": "urn:uuid:diabetes-medication-007",
      "resource": {
        "resourceType": "MedicationRequest",
        "id": "diabetes-medication-007",
        "status": "completed",
        "intent": "order",
        "medicationCodeableConcept": {
          "coding": [{
            "system": "http://www.whocc.no/atc",
            "code": "A10BJ01",
            "display": "Liraglutide"
          }]
        },
        "subject": { "reference": "Patient/diabetes-patient-007" },
        "encounter": { "reference": "Encounter/diabetes-encounter-007" }
      },
      "request": { "method": "PUT", "url": "MedicationRequest/diabetes-medication-007" }
    },
    {
      "fullUrl": "urn:uuid:diabetes-observation-007",
      "resource": {
        "resourceType": "Observation",
        "id": "diabetes-observation-007",
        "status": "final",
        "code": {
          "coding": [{
            "system": "http://loinc.org",
            "code": "4548-4",
            "display": "Hemoglobin A1c/Hemoglobin.total in Blood"
          }]
        },
        "subject": { "reference": "Patient/diabetes-patient-007" },
        "effectiveDateTime": "2025-12-02T09:00:00Z",
        "valueQuantity": {
          "value": 6.5,
          "unit": "%",
          "system": "http://unitsofmeasure.org",
          "code": "%"
        }
      },
      "request": { "method": "PUT", "url": "Observation/diabetes-observation-007" }
    },
    {
      "fullUrl": "urn:uuid:diabetes-patient-008",
      "resource": {
        "resourceType": "Patient",
        "id": "diabetes-patient-008",
        "identifier": [{
          "system": "http://hospital.example.org/patients",
          "value": "DM-P008"
        }],
        "name": [{ "family": "周", "given": ["大雄"] }],
        "gender": "male",
        "birthDate": "1960-11-20"
      },
      "request": { "method": "PUT", "url": "Patient/diabetes-patient-008" }
    },
    {
      "fullUrl": "urn:uuid:diabetes-encounter-008",
      "resource": {
        "resourceType": "Encounter",
        "id": "diabetes-encounter-008",
        "status": "finished",
        "class": {
          "system": "http://terminology.hl7.org/CodeSystem/v3-ActCode",
          "code": "AMB",
          "display": "ambulatory"
        },
        "subject": { "reference": "Patient/diabetes-patient-008" },
        "period": {
          "start": "2025-12-05T10:00:00Z",
          "end": "2025-12-05T11:00:00Z"
        }
      },
      "request": { "method": "PUT", "url": "Encounter/diabetes-encounter-008" }
    },
    {
      "fullUrl": "urn:uuid:diabetes-condition-008",
      "resource": {
        "resourceType": "Condition",
        "id": "diabetes-condition-008",
        "clinicalStatus": {
          "coding": [{
            "system": "http://terminology.hl7.org/CodeSystem/condition-clinical",
            "code": "active"
          }]
        },
        "code": {
          "coding": [{
            "system": "http://hl7.org/fhir/sid/icd-10-cm",
            "code": "E11.51",
            "display": "Type 2 diabetes mellitus with diabetic peripheral angiopathy without gangrene"
          }]
        },
        "subject": { "reference": "Patient/diabetes-patient-008" },
        "encounter": { "reference": "Encounter/diabetes-encounter-008" }
      },
      "request": { "method": "PUT", "url": "Condition/diabetes-condition-008" }
    },
    {
      "fullUrl": "urn:uuid:diabetes-medication-008",
      "resource": {
        "resourceType": "MedicationRequest",
        "id": "diabetes-medication-008",
        "status": "completed",
        "intent": "order",
        "medicationCodeableConcept": {
          "coding": [{
            "system": "http://www.whocc.no/atc",
            "code": "A10BA02",
            "display": "Metformin"
          }]
        },
        "subject": { "reference": "Patient/diabetes-patient-008" },
        "encounter": { "reference": "Encounter/diabetes-encounter-008" }
      },
      "request": { "method": "PUT", "url": "MedicationRequest/diabetes-medication-008" }
    },
    {
      "fullUrl": "urn:uuid:diabetes-observation-008",
      "resource": {
        "resourceType": "Observation",
        "id": "diabetes-observation-008",
        "status": "final",
        "code": {
          "coding": [{
            "system": "http://loinc.org",
            "code": "4548-4",
            "display": "Hemoglobin A1c/Hemoglobin.total in Blood"
          }]
        },
        "subject": { "reference": "Patient/diabetes-patient-008" },
        "effectiveDateTime": "2025-12-05T10:30:00Z",
        "valueQuantity": {
          "value": 7.8,
          "unit": "%",
          "system": "http://unitsofmeasure.org",
          "code": "%"
        }
      },
      "request": { "method": "PUT", "url": "Observation/diabetes-observation-008" }
    },
    {
      "fullUrl": "urn:uuid:diabetes-patient-009",
      "resource": {
        "resourceType": "Patient",
        "id": "diabetes-patient-009",
        "identifier": [{
          "system": "http://hospital.example.org/patients",
          "value": "DM-P009"
        }],
        "name": [{ "family": "鄭", "given": ["小美"] }],
        "gender": "female",
        "birthDate": "1969-07-25"
      },
      "request": { "method": "PUT", "url": "Patient/diabetes-patient-009" }
    },
    {
      "fullUrl": "urn:uuid:diabetes-encounter-009",
      "resource": {
        "resourceType": "Encounter",
        "id": "diabetes-encounter-009",
        "status": "finished",
        "class": {
          "system": "http://terminology.hl7.org/CodeSystem/v3-ActCode",
          "code": "AMB",
          "display": "ambulatory"
        },
        "subject": { "reference": "Patient/diabetes-patient-009" },
        "period": {
          "start": "2025-12-08T14:30:00Z",
          "end": "2025-12-08T15:30:00Z"
        }
      },
      "request": { "method": "PUT", "url": "Encounter/diabetes-encounter-009" }
    },
    {
      "fullUrl": "urn:uuid:diabetes-condition-009",
      "resource": {
        "resourceType": "Condition",
        "id": "diabetes-condition-009",
        "clinicalStatus": {
          "coding": [{
            "system": "http://terminology.hl7.org/CodeSystem/condition-clinical",
            "code": "active"
          }]
        },
        "code": {
          "coding": [{
            "system": "http://hl7.org/fhir/sid/icd-10-cm",
            "code": "E11.9",
            "display": "Type 2 diabetes mellitus without complications"
          }]
        },
        "subject": { "reference": "Patient/diabetes-patient-009" },
        "encounter": { "reference": "Encounter/diabetes-encounter-009" }
      },
      "request": { "method": "PUT", "url": "Condition/diabetes-condition-009" }
    },
    {
      "fullUrl": "urn:uuid:diabetes-medication-009",
      "resource": {
        "resourceType": "MedicationRequest",
        "id": "diabetes-medication-009",
        "status": "completed",
        "intent": "order",
        "medicationCodeableConcept": {
          "coding": [{
            "system": "http://www.whocc.no/atc",
            "code": "A10BH01",
            "display": "Sitagliptin"
          }]
        },
        "subject": { "reference": "Patient/diabetes-patient-009" },
        "encounter": { "reference": "Encounter/diabetes-encounter-009" }
      },
      "request": { "method": "PUT", "url": "MedicationRequest/diabetes-medication-009" }
    },
    {
      "fullUrl": "urn:uuid:diabetes-observation-009",
      "resource": {
        "resourceType": "Observation",
        "id": "diabetes-observation-009",
        "status": "final",
        "code": {
          "coding": [{
            "system": "http://loinc.org",
            "code": "4548-4",
            "display": "Hemoglobin A1c/Hemoglobin.total in Blood"
          }]
        },
        "subject": { "reference": "Patient/diabetes-patient-009" },
        "effectiveDateTime": "2025-12-08T15:00:00Z",
        "valueQuantity": {
          "value": 7.0,
          "unit": "%",
          "system": "http://unitsofmeasure.org",
          "code": "%"
        }
      },
      "request": { "method": "PUT", "url": "Observation/diabetes-observation-009" }
    },
    {
      "fullUrl": "urn:uuid:diabetes-patient-010",
      "resource": {
        "resourceType": "Patient",
        "id": "diabetes-patient-010",
        "identifier": [{
          "system": "http://hospital.example.org/patients",
          "value": "DM-P010"
        }],
        "name": [{ "family": "劉", "given": ["大偉"] }],
        "gender": "male",
        "birthDate": "1956-01-12"
      },
      "request": { "method": "PUT", "url": "Patient/diabetes-patient-010" }
    },
    {
      "fullUrl": "urn:uuid:diabetes-encounter-010",
      "resource": {
        "resourceType": "Encounter",
        "id": "diabetes-encounter-010",
        "status": "finished",
        "class": {
          "system": "http://terminology.hl7.org/CodeSystem/v3-ActCode",
          "code": "AMB",
          "display": "ambulatory"
        },
        "subject": { "reference": "Patient/diabetes-patient-010" },
        "period": {
          "start": "2025-10-28T09:00:00Z",
          "end": "2025-10-28T10:00:00Z"
        }
      },
      "request": { "method": "PUT", "url": "Encounter/diabetes-encounter-010" }
    },
    {
      "fullUrl": "urn:uuid:diabetes-condition-010",
      "resource": {
        "resourceType": "Condition",
        "id": "diabetes-condition-010",
        "clinicalStatus": {
          "coding": [{
            "system": "http://terminology.hl7.org/CodeSystem/condition-clinical",
            "code": "active"
          }]
        },
        "code": {
          "coding": [{
            "system": "http://hl7.org/fhir/sid/icd-10-cm",
            "code": "E11.21",
            "display": "Type 2 diabetes mellitus with diabetic nephropathy"
          }]
        },
        "subject": { "reference": "Patient/diabetes-patient-010" },
        "encounter": { "reference": "Encounter/diabetes-encounter-010" }
      },
      "request": { "method": "PUT", "url": "Condition/diabetes-condition-010" }
    },
    {
      "fullUrl": "urn:uuid:diabetes-medication-010",
      "resource": {
        "resourceType": "MedicationRequest",
        "id": "diabetes-medication-010",
        "status": "completed",
        "intent": "order",
        "medicationCodeableConcept": {
          "coding": [{
            "system": "http://www.whocc.no/atc",
            "code": "A10AB01",
            "display": "Insulin (human)"
          }]
        },
        "subject": { "reference": "Patient/diabetes-patient-010" },
        "encounter": { "reference": "Encounter/diabetes-encounter-010" }
      },
      "request": { "method": "PUT", "url": "MedicationRequest/diabetes-medication-010" }
    },
    {
      "fullUrl": "urn:uuid:diabetes-observation-010",
      "resource": {
        "resourceType": "Observation",
        "id": "diabetes-observation-010",
        "status": "final",
        "code": {
          "coding": [{
            "system": "http://loinc.org",
            "code": "4548-4",
            "display": "Hemoglobin A1c/Hemoglobin.total in Blood"
          }]
        },
        "subject": { "reference": "Patient/diabetes-patient-010" },
        "effectiveDateTime": "2025-10-28T09:30:00Z",
        "valueQuantity": {
          "value": 8.9,
          "unit": "%",
          "system": "http://unitsofmeasure.org",
          "code": "%"
        }
      },
      "request": { "method": "PUT", "url": "Observation/diabetes-observation-010" }
    },
    {
      "fullUrl": "urn:uuid:diabetes-patient-011",
      "resource": {
        "resourceType": "Patient",
        "id": "diabetes-patient-011",
        "identifier": [{
          "system": "http://hospital.example.org/patients",
          "value": "DM-P011"
        }],
        "name": [{ "family": "許", "given": ["小雲"] }],
        "gender": "female",
        "birthDate": "1973-05-17"
      },
      "request": { "method": "PUT", "url": "Patient/diabetes-patient-011" }
    },
    {
      "fullUrl": "urn:uuid:diabetes-encounter-011",
      "resource": {
        "resourceType": "Encounter",
        "id": "diabetes-encounter-011",
        "status": "finished",
        "class": {
          "system": "http://terminology.hl7.org/CodeSystem/v3-ActCode",
          "code": "AMB",
          "display": "ambulatory"
        },
        "subject": { "reference": "Patient/diabetes-patient-011" },
        "period": {
          "start": "2025-11-15T15:00:00Z",
          "end": "2025-11-15T16:00:00Z"
        }
      },
      "request": { "method": "PUT", "url": "Encounter/diabetes-encounter-011" }
    },
    {
      "fullUrl": "urn:uuid:diabetes-condition-011",
      "resource": {
        "resourceType": "Condition",
        "id": "diabetes-condition-011",
        "clinicalStatus": {
          "coding": [{
            "system": "http://terminology.hl7.org/CodeSystem/condition-clinical",
            "code": "active"
          }]
        },
        "code": {
          "coding": [{
            "system": "http://hl7.org/fhir/sid/icd-10-cm",
            "code": "E11.9",
            "display": "Type 2 diabetes mellitus without complications"
          }]
        },
        "subject": { "reference": "Patient/diabetes-patient-011" },
        "encounter": { "reference": "Encounter/diabetes-encounter-011" }
      },
      "request": { "method": "PUT", "url": "Condition/diabetes-condition-011" }
    },
    {
      "fullUrl": "urn:uuid:diabetes-medication-011",
      "resource": {
        "resourceType": "MedicationRequest",
        "id": "diabetes-medication-011",
        "status": "completed",
        "intent": "order",
        "medicationCodeableConcept": {
          "coding": [{
            "system": "http://www.whocc.no/atc",
            "code": "A10BG03",
            "display": "Pioglitazone"
          }]
        },
        "subject": { "reference": "Patient/diabetes-patient-011" },
        "encounter": { "reference": "Encounter/diabetes-encounter-011" }
      },
      "request": { "method": "PUT", "url": "MedicationRequest/diabetes-medication-011" }
    },
    {
      "fullUrl": "urn:uuid:diabetes-observation-011",
      "resource": {
        "resourceType": "Observation",
        "id": "diabetes-observation-011",
        "status": "final",
        "code": {
          "coding": [{
            "system": "http://loinc.org",
            "code": "4548-4",
            "display": "Hemoglobin A1c/Hemoglobin.total in Blood"
          }]
        },
        "subject": { "reference": "Patient/diabetes-patient-011" },
        "effectiveDateTime": "2025-11-15T15:30:00Z",
        "valueQuantity": {
          "value": 6.9,
          "unit": "%",
          "system": "http://unitsofmeasure.org",
          "code": "%"
        }
      },
      "request": { "method": "PUT", "url": "Observation/diabetes-observation-011" }
    }
  ]
}
