{
  "resourceType": "Bundle",
  "type": "transaction",
  "entry": [
    {
      "fullUrl": "urn:uuid:org-hospital-a",
      "resource": {
        "resourceType": "Organization",
        "id": "org-hospital-a",
        "identifier": [
          {
            "system": "http://www.mohw.gov.tw/hospital",
            "value": "HOSP-A-001"
          }
        ],
        "name": "甲醫院",
        "type": [
          {
            "coding": [
              {
                "system": "http://terminology.hl7.org/CodeSystem/organization-type",
                "code": "prov",
                "display": "Healthcare Provider"
              }
            ]
          }
        ]
      },
      "request": {
        "method": "PUT",
        "url": "Organization/org-hospital-a"
      }
    },
    {
      "fullUrl": "urn:uuid:org-hospital-b",
      "resource": {
        "resourceType": "Organization",
        "id": "org-hospital-b",
        "identifier": [
          {
            "system": "http://www.mohw.gov.tw/hospital",
            "value": "HOSP-B-002"
          }
        ],
        "name": "乙醫院",
        "type": [
          {
            "coding": [
              {
                "system": "http://terminology.hl7.org/CodeSystem/organization-type",
                "code": "prov",
                "display": "Healthcare Provider"
              }
            ]
          }
        ]
      },
      "request": {
        "method": "PUT",
        "url": "Organization/org-hospital-b"
      }
    },
    {
      "fullUrl": "urn:uuid:patient-antihyper-overlap-001",
      "resource": {
        "resourceType": "Patient",
        "id": "patient-antihyper-overlap-001",
        "identifier": [
          {
            "system": "http://www.mohw.gov.tw/patient",
            "value": "ANTIHYPER-OVERLAP-001"
          }
        ],
        "name": [
          {
            "family": "王",
            "given": ["小明"]
          }
        ],
        "gender": "male",
        "birthDate": "1965-03-15"
      },
      "request": {
        "method": "PUT",
        "url": "Patient/patient-antihyper-overlap-001"
      }
    },
    {
      "fullUrl": "urn:uuid:encounter-antihyper-overlap-001-a",
      "resource": {
        "resourceType": "Encounter",
        "id": "encounter-antihyper-overlap-001-a",
        "status": "finished",
        "class": {
          "system": "http://terminology.hl7.org/CodeSystem/v3-ActCode",
          "code": "AMB",
          "display": "ambulatory"
        },
        "subject": {
          "reference": "Patient/patient-antihyper-overlap-001"
        },
        "serviceProvider": {
          "reference": "Organization/org-hospital-a"
        },
        "period": {
          "start": "2025-10-01T09:00:00Z",
          "end": "2025-10-01T09:30:00Z"
        }
      },
      "request": {
        "method": "PUT",
        "url": "Encounter/encounter-antihyper-overlap-001-a"
      }
    },
    {
      "fullUrl": "urn:uuid:med-antihyper-overlap-001-a",
      "resource": {
        "resourceType": "MedicationRequest",
        "id": "med-antihyper-overlap-001-a",
        "status": "completed",
        "intent": "order",
        "medicationCodeableConcept": {
          "coding": [
            {
              "system": "http://www.whocc.no/atc",
              "code": "C09AA01",
              "display": "Captopril (降血壓藥)"
            }
          ]
        },
        "subject": {
          "reference": "Patient/patient-antihyper-overlap-001"
        },
        "encounter": {
          "reference": "Encounter/encounter-antihyper-overlap-001-a"
        },
        "authoredOn": "2025-10-01T09:15:00Z",
        "dosageInstruction": [
          {
            "timing": {
              "repeat": {
                "boundsPeriod": {
                  "start": "2025-10-01",
                  "end": "2025-10-31"
                }
              }
            }
          }
        ],
        "dispenseRequest": {
          "validityPeriod": {
            "start": "2025-10-01",
            "end": "2025-10-31"
          },
          "quantity": {
            "value": 30,
            "unit": "tablets"
          }
        }
      },
      "request": {
        "method": "PUT",
        "url": "MedicationRequest/med-antihyper-overlap-001-a"
      }
    },
    {
      "fullUrl": "urn:uuid:encounter-antihyper-overlap-001-b",
      "resource": {
        "resourceType": "Encounter",
        "id": "encounter-antihyper-overlap-001-b",
        "status": "finished",
        "class": {
          "system": "http://terminology.hl7.org/CodeSystem/v3-ActCode",
          "code": "AMB",
          "display": "ambulatory"
        },
        "subject": {
          "reference": "Patient/patient-antihyper-overlap-001"
        },
        "serviceProvider": {
          "reference": "Organization/org-hospital-b"
        },
        "period": {
          "start": "2025-10-15T14:00:00Z",
          "end": "2025-10-15T14:30:00Z"
        }
      },
      "request": {
        "method": "PUT",
        "url": "Encounter/encounter-antihyper-overlap-001-b"
      }
    },
    {
      "fullUrl": "urn:uuid:med-antihyper-overlap-001-b",
      "resource": {
        "resourceType": "MedicationRequest",
        "id": "med-antihyper-overlap-001-b",
        "status": "completed",
        "intent": "order",
        "medicationCodeableConcept": {
          "coding": [
            {
              "system": "http://www.whocc.no/atc",
              "code": "C09AA02",
              "display": "Enalapril (另一種降血壓藥)"
            }
          ]
        },
        "subject": {
          "reference": "Patient/patient-antihyper-overlap-001"
        },
        "encounter": {
          "reference": "Encounter/encounter-antihyper-overlap-001-b"
        },
        "authoredOn": "2025-10-15T14:15:00Z",
        "dosageInstruction": [
          {
            "timing": {
              "repeat": {
                "boundsPeriod": {
                  "start": "2025-10-15",
                  "end": "2025-11-14"
                }
              }
            }
          }
        ],
        "dispenseRequest": {
          "validityPeriod": {
            "start": "2025-10-15",
            "end": "2025-11-14"
          },
          "quantity": {
            "value": 30,
            "unit": "tablets"
          }
        }
      },
      "request": {
        "method": "PUT",
        "url": "MedicationRequest/med-antihyper-overlap-001-b"
      }
    },
    {
      "fullUrl": "urn:uuid:patient-antihyper-overlap-002",
      "resource": {
        "resourceType": "Patient",
        "id": "patient-antihyper-overlap-002",
        "identifier": [
          {
            "system": "http://www.mohw.gov.tw/patient",
            "value": "ANTIHYPER-OVERLAP-002"
          }
        ],
        "name": [
          {
            "family": "李",
            "given": ["美華"]
          }
        ],
        "gender": "female",
        "birthDate": "1958-07-22"
      },
      "request": {
        "method": "PUT",
        "url": "Patient/patient-antihyper-overlap-002"
      }
    },
    {
      "fullUrl": "urn:uuid:encounter-antihyper-overlap-002-a",
      "resource": {
        "resourceType": "Encounter",
        "id": "encounter-antihyper-overlap-002-a",
        "status": "finished",
        "class": {
          "system": "http://terminology.hl7.org/CodeSystem/v3-ActCode",
          "code": "AMB",
          "display": "ambulatory"
        },
        "subject": {
          "reference": "Patient/patient-antihyper-overlap-002"
        },
        "serviceProvider": {
          "reference": "Organization/org-hospital-a"
        },
        "period": {
          "start": "2025-10-05T10:00:00Z",
          "end": "2025-10-05T10:30:00Z"
        }
      },
      "request": {
        "method": "PUT",
        "url": "Encounter/encounter-antihyper-overlap-002-a"
      }
    },
    {
      "fullUrl": "urn:uuid:med-antihyper-overlap-002-a",
      "resource": {
        "resourceType": "MedicationRequest",
        "id": "med-antihyper-overlap-002-a",
        "status": "completed",
        "intent": "order",
        "medicationCodeableConcept": {
          "coding": [
            {
              "system": "http://www.whocc.no/atc",
              "code": "C09CA01",
              "display": "Losartan (降血壓藥)"
            }
          ]
        },
        "subject": {
          "reference": "Patient/patient-antihyper-overlap-002"
        },
        "encounter": {
          "reference": "Encounter/encounter-antihyper-overlap-002-a"
        },
        "authoredOn": "2025-10-05T10:15:00Z",
        "dosageInstruction": [
          {
            "timing": {
              "repeat": {
                "boundsPeriod": {
                  "start": "2025-10-05",
                  "end": "2025-11-04"
                }
              }
            }
          }
        ],
        "dispenseRequest": {
          "validityPeriod": {
            "start": "2025-10-05",
            "end": "2025-11-04"
          },
          "quantity": {
            "value": 30,
            "unit": "tablets"
          }
        }
      },
      "request": {
        "method": "PUT",
        "url": "MedicationRequest/med-antihyper-overlap-002-a"
      }
    },
    {
      "fullUrl": "urn:uuid:encounter-antihyper-overlap-002-b",
      "resource": {
        "resourceType": "Encounter",
        "id": "encounter-antihyper-overlap-002-b",
        "status": "finished",
        "class": {
          "system": "http://terminology.hl7.org/CodeSystem/v3-ActCode",
          "code": "AMB",
          "display": "ambulatory"
        },
        "subject": {
          "reference": "Patient/patient-antihyper-overlap-002"
        },
        "serviceProvider": {
          "reference": "Organization/org-hospital-b"
        },
        "period": {
          "start": "2025-10-20T11:00:00Z",
          "end": "2025-10-20T11:30:00Z"
        }
      },
      "request": {
        "method": "PUT",
        "url": "Encounter/encounter-antihyper-overlap-002-b"
      }
    },
    {
      "fullUrl": "urn:uuid:med-antihyper-overlap-002-b",
      "resource": {
        "resourceType": "MedicationRequest",
        "id": "med-antihyper-overlap-002-b",
        "status": "completed",
        "intent": "order",
        "medicationCodeableConcept": {
          "coding": [
            {
              "system": "http://www.whocc.no/atc",
              "code": "C09CA04",
              "display": "Irbesartan (另一種降血壓藥)"
            }
          ]
        },
        "subject": {
          "reference": "Patient/patient-antihyper-overlap-002"
        },
        "encounter": {
          "reference": "Encounter/encounter-antihyper-overlap-002-b"
        },
        "authoredOn": "2025-10-20T11:15:00Z",
        "dosageInstruction": [
          {
            "timing": {
              "repeat": {
                "boundsPeriod": {
                  "start": "2025-10-20",
                  "end": "2025-11-19"
                }
              }
            }
          }
        ],
        "dispenseRequest": {
          "validityPeriod": {
            "start": "2025-10-20",
            "end": "2025-11-19"
          },
          "quantity": {
            "value": 30,
            "unit": "tablets"
          }
        }
      },
      "request": {
        "method": "PUT",
        "url": "MedicationRequest/med-antihyper-overlap-002-b"
      }
    },
    {
      "fullUrl": "urn:uuid:patient-antihyper-overlap-003",
      "resource": {
        "resourceType": "Patient",
        "id": "patient-antihyper-overlap-003",
        "identifier": [
          {
            "system": "http://www.mohw.gov.tw/patient",
            "value": "ANTIHYPER-OVERLAP-003"
          }
        ],
        "name": [
          {
            "family": "陳",
            "given": ["大華"]
          }
        ],
        "gender": "male",
        "birthDate": "1972-11-08"
      },
      "request": {
        "method": "PUT",
        "url": "Patient/patient-antihyper-overlap-003"
      }
    },
    {
      "fullUrl": "urn:uuid:encounter-antihyper-overlap-003-a",
      "resource": {
        "resourceType": "Encounter",
        "id": "encounter-antihyper-overlap-003-a",
        "status": "finished",
        "class": {
          "system": "http://terminology.hl7.org/CodeSystem/v3-ActCode",
          "code": "AMB",
          "display": "ambulatory"
        },
        "subject": {
          "reference": "Patient/patient-antihyper-overlap-003"
        },
        "serviceProvider": {
          "reference": "Organization/org-hospital-a"
        },
        "period": {
          "start": "2025-09-28T15:00:00Z",
          "end": "2025-09-28T15:30:00Z"
        }
      },
      "request": {
        "method": "PUT",
        "url": "Encounter/encounter-antihyper-overlap-003-a"
      }
    },
    {
      "fullUrl": "urn:uuid:med-antihyper-overlap-003-a",
      "resource": {
        "resourceType": "MedicationRequest",
        "id": "med-antihyper-overlap-003-a",
        "status": "completed",
        "intent": "order",
        "medicationCodeableConcept": {
          "coding": [
            {
              "system": "http://www.whocc.no/atc",
              "code": "C08CA01",
              "display": "Amlodipine (降血壓藥)"
            }
          ]
        },
        "subject": {
          "reference": "Patient/patient-antihyper-overlap-003"
        },
        "encounter": {
          "reference": "Encounter/encounter-antihyper-overlap-003-a"
        },
        "authoredOn": "2025-09-28T15:15:00Z",
        "dosageInstruction": [
          {
            "timing": {
              "repeat": {
                "boundsPeriod": {
                  "start": "2025-09-28",
                  "end": "2025-10-27"
                }
              }
            }
          }
        ],
        "dispenseRequest": {
          "validityPeriod": {
            "start": "2025-09-28",
            "end": "2025-10-27"
          },
          "quantity": {
            "value": 30,
            "unit": "tablets"
          }
        }
      },
      "request": {
        "method": "PUT",
        "url": "MedicationRequest/med-antihyper-overlap-003-a"
      }
    },
    {
      "fullUrl": "urn:uuid:encounter-antihyper-overlap-003-b",
      "resource": {
        "resourceType": "Encounter",
        "id": "encounter-antihyper-overlap-003-b",
        "status": "finished",
        "class": {
          "system": "http://terminology.hl7.org/CodeSystem/v3-ActCode",
          "code": "AMB",
          "display": "ambulatory"
        },
        "subject": {
          "reference": "Patient/patient-antihyper-overlap-003"
        },
        "serviceProvider": {
          "reference": "Organization/org-hospital-b"
        },
        "period": {
          "start": "2025-10-10T13:00:00Z",
          "end": "2025-10-10T13:30:00Z"
        }
      },
      "request": {
        "method": "PUT",
        "url": "Encounter/encounter-antihyper-overlap-003-b"
      }
    },
    {
      "fullUrl": "urn:uuid:med-antihyper-overlap-003-b",
      "resource": {
        "resourceType": "MedicationRequest",
        "id": "med-antihyper-overlap-003-b",
        "status": "completed",
        "intent": "order",
        "medicationCodeableConcept": {
          "coding": [
            {
              "system": "http://www.whocc.no/atc",
              "code": "C07AB02",
              "display": "Metoprolol (降血壓藥)"
            }
          ]
        },
        "subject": {
          "reference": "Patient/patient-antihyper-overlap-003"
        },
        "encounter": {
          "reference": "Encounter/encounter-antihyper-overlap-003-b"
        },
        "authoredOn": "2025-10-10T13:15:00Z",
        "dosageInstruction": [
          {
            "timing": {
              "repeat": {
                "boundsPeriod": {
                  "start": "2025-10-10",
                  "end": "2025-11-09"
                }
              }
            }
          }
        ],
        "dispenseRequest": {
          "validityPeriod": {
            "start": "2025-10-10",
            "end": "2025-11-09"
          },
          "quantity": {
            "value": 30,
            "unit": "tablets"
          }
        }
      },
      "request": {
        "method": "PUT",
        "url": "MedicationRequest/med-antihyper-overlap-003-b"
      }
    }
  ]
}
