{
  "resourceType": "Bundle",
  "type": "transaction",
  "entry": [
    {
      "request": {
        "method": "PUT",
        "url": "Organization/org-hospital-cross-sed-e"
      },
      "resource": {
        "resourceType": "Organization",
        "id": "org-hospital-cross-sed-e",
        "name": "跨院鎮靜劑_戊醫院",
        "type": [
          {
            "coding": [
              {
                "system": "http://terminology.hl7.org/CodeSystem/organization-type",
                "code": "prov",
                "display": "Healthcare Provider"
              }
            ]
          }
        ]
      }
    },
    {
      "request": {
        "method": "PUT",
        "url": "Organization/org-hospital-cross-sed-f"
      },
      "resource": {
        "resourceType": "Organization",
        "id": "org-hospital-cross-sed-f",
        "name": "跨院鎮靜劑_己醫院",
        "type": [
          {
            "coding": [
              {
                "system": "http://terminology.hl7.org/CodeSystem/organization-type",
                "code": "prov",
                "display": "Healthcare Provider"
              }
            ]
          }
        ]
      }
    },
    {
      "request": {
        "method": "PUT",
        "url": "Patient/patient-sedative-cross-new-001"
      },
      "resource": {
        "resourceType": "Patient",
        "id": "patient-sedative-cross-new-001",
        "identifier": [
          {
            "system": "http://www.moi.gov.tw",
            "value": "SED-CROSS-NEW-001"
          }
        ],
        "name": [
          {
            "text": "跨院鎮靜新001",
            "family": "跨院",
            "given": ["鎮靜新001"]
          }
        ],
        "gender": "female",
        "birthDate": "1968-03-22"
      }
    },
    {
      "request": {
        "method": "PUT",
        "url": "Patient/patient-sedative-cross-new-002"
      },
      "resource": {
        "resourceType": "Patient",
        "id": "patient-sedative-cross-new-002",
        "identifier": [
          {
            "system": "http://www.moi.gov.tw",
            "value": "SED-CROSS-NEW-002"
          }
        ],
        "name": [
          {
            "text": "跨院鎮靜新002",
            "family": "跨院",
            "given": ["鎮靜新002"]
          }
        ],
        "gender": "male",
        "birthDate": "1975-09-14"
      }
    },
    {
      "request": {
        "method": "PUT",
        "url": "Patient/patient-sedative-cross-new-003"
      },
      "resource": {
        "resourceType": "Patient",
        "id": "patient-sedative-cross-new-003",
        "identifier": [
          {
            "system": "http://www.moi.gov.tw",
            "value": "SED-CROSS-NEW-003"
          }
        ],
        "name": [
          {
            "text": "跨院鎮靜新003",
            "family": "跨院",
            "given": ["鎮靜新003"]
          }
        ],
        "gender": "female",
        "birthDate": "1980-07-08"
      }
    },
    {
      "request": {
        "method": "PUT",
        "url": "Encounter/encounter-sed-cross-new-001-e"
      },
      "resource": {
        "resourceType": "Encounter",
        "id": "encounter-sed-cross-new-001-e",
        "status": "finished",
        "class": {
          "system": "http://terminology.hl7.org/CodeSystem/v3-ActCode",
          "code": "AMB",
          "display": "ambulatory"
        },
        "subject": {
          "reference": "Patient/patient-sedative-cross-new-001"
        },
        "serviceProvider": {
          "reference": "Organization/org-hospital-cross-sed-e"
        },
        "period": {
          "start": "2025-10-05T09:00:00+08:00",
          "end": "2025-10-05T09:30:00+08:00"
        }
      }
    },
    {
      "request": {
        "method": "PUT",
        "url": "MedicationRequest/medreq-sed-cross-new-001-e"
      },
      "resource": {
        "resourceType": "MedicationRequest",
        "id": "medreq-sed-cross-new-001-e",
        "status": "completed",
        "intent": "order",
        "medicationCodeableConcept": {
          "coding": [
            {
              "system": "http://www.whocc.no/atc",
              "code": "N05CF02",
              "display": "Zolpidem"
            }
          ],
          "text": "Zolpidem 10mg"
        },
        "subject": {
          "reference": "Patient/patient-sedative-cross-new-001"
        },
        "encounter": {
          "reference": "Encounter/encounter-sed-cross-new-001-e"
        },
        "authoredOn": "2025-10-05T09:00:00+08:00",
        "dispenseRequest": {
          "validityPeriod": {
            "start": "2025-10-05",
            "end": "2025-11-02"
          },
          "quantity": {
            "value": 28,
            "unit": "tablet"
          }
        }
      }
    },
    {
      "request": {
        "method": "PUT",
        "url": "Encounter/encounter-sed-cross-new-001-f"
      },
      "resource": {
        "resourceType": "Encounter",
        "id": "encounter-sed-cross-new-001-f",
        "status": "finished",
        "class": {
          "system": "http://terminology.hl7.org/CodeSystem/v3-ActCode",
          "code": "AMB",
          "display": "ambulatory"
        },
        "subject": {
          "reference": "Patient/patient-sedative-cross-new-001"
        },
        "serviceProvider": {
          "reference": "Organization/org-hospital-cross-sed-f"
        },
        "period": {
          "start": "2025-10-15T14:00:00+08:00",
          "end": "2025-10-15T14:30:00+08:00"
        }
      }
    },
    {
      "request": {
        "method": "PUT",
        "url": "MedicationRequest/medreq-sed-cross-new-001-f"
      },
      "resource": {
        "resourceType": "MedicationRequest",
        "id": "medreq-sed-cross-new-001-f",
        "status": "completed",
        "intent": "order",
        "medicationCodeableConcept": {
          "coding": [
            {
              "system": "http://www.whocc.no/atc",
              "code": "N05CD08",
              "display": "Midazolam"
            }
          ],
          "text": "Midazolam 7.5mg"
        },
        "subject": {
          "reference": "Patient/patient-sedative-cross-new-001"
        },
        "encounter": {
          "reference": "Encounter/encounter-sed-cross-new-001-f"
        },
        "authoredOn": "2025-10-15T14:00:00+08:00",
        "dispenseRequest": {
          "validityPeriod": {
            "start": "2025-10-15",
            "end": "2025-11-12"
          },
          "quantity": {
            "value": 28,
            "unit": "tablet"
          }
        }
      }
    },
    {
      "request": {
        "method": "PUT",
        "url": "Encounter/encounter-sed-cross-new-002-e"
      },
      "resource": {
        "resourceType": "Encounter",
        "id": "encounter-sed-cross-new-002-e",
        "status": "finished",
        "class": {
          "system": "http://terminology.hl7.org/CodeSystem/v3-ActCode",
          "code": "AMB",
          "display": "ambulatory"
        },
        "subject": {
          "reference": "Patient/patient-sedative-cross-new-002"
        },
        "serviceProvider": {
          "reference": "Organization/org-hospital-cross-sed-e"
        },
        "period": {
          "start": "2025-11-08T10:00:00+08:00",
          "end": "2025-11-08T10:30:00+08:00"
        }
      }
    },
    {
      "request": {
        "method": "PUT",
        "url": "MedicationRequest/medreq-sed-cross-new-002-e"
      },
      "resource": {
        "resourceType": "MedicationRequest",
        "id": "medreq-sed-cross-new-002-e",
        "status": "completed",
        "intent": "order",
        "medicationCodeableConcept": {
          "coding": [
            {
              "system": "http://www.whocc.no/atc",
              "code": "N05CF01",
              "display": "Zopiclone"
            }
          ],
          "text": "Zopiclone 7.5mg"
        },
        "subject": {
          "reference": "Patient/patient-sedative-cross-new-002"
        },
        "encounter": {
          "reference": "Encounter/encounter-sed-cross-new-002-e"
        },
        "authoredOn": "2025-11-08T10:00:00+08:00",
        "dispenseRequest": {
          "validityPeriod": {
            "start": "2025-11-08",
            "end": "2025-12-06"
          },
          "quantity": {
            "value": 28,
            "unit": "tablet"
          }
        }
      }
    },
    {
      "request": {
        "method": "PUT",
        "url": "Encounter/encounter-sed-cross-new-002-f"
      },
      "resource": {
        "resourceType": "Encounter",
        "id": "encounter-sed-cross-new-002-f",
        "status": "finished",
        "class": {
          "system": "http://terminology.hl7.org/CodeSystem/v3-ActCode",
          "code": "AMB",
          "display": "ambulatory"
        },
        "subject": {
          "reference": "Patient/patient-sedative-cross-new-002"
        },
        "serviceProvider": {
          "reference": "Organization/org-hospital-cross-sed-f"
        },
        "period": {
          "start": "2025-11-18T15:00:00+08:00",
          "end": "2025-11-18T15:30:00+08:00"
        }
      }
    },
    {
      "request": {
        "method": "PUT",
        "url": "MedicationRequest/medreq-sed-cross-new-002-f"
      },
      "resource": {
        "resourceType": "MedicationRequest",
        "id": "medreq-sed-cross-new-002-f",
        "status": "completed",
        "intent": "order",
        "medicationCodeableConcept": {
          "coding": [
            {
              "system": "http://www.whocc.no/atc",
              "code": "N05CD02",
              "display": "Nitrazepam"
            }
          ],
          "text": "Nitrazepam 5mg"
        },
        "subject": {
          "reference": "Patient/patient-sedative-cross-new-002"
        },
        "encounter": {
          "reference": "Encounter/encounter-sed-cross-new-002-f"
        },
        "authoredOn": "2025-11-18T15:00:00+08:00",
        "dispenseRequest": {
          "validityPeriod": {
            "start": "2025-11-18",
            "end": "2025-12-16"
          },
          "quantity": {
            "value": 28,
            "unit": "tablet"
          }
        }
      }
    },
    {
      "request": {
        "method": "PUT",
        "url": "Encounter/encounter-sed-cross-new-003-e"
      },
      "resource": {
        "resourceType": "Encounter",
        "id": "encounter-sed-cross-new-003-e",
        "status": "finished",
        "class": {
          "system": "http://terminology.hl7.org/CodeSystem/v3-ActCode",
          "code": "AMB",
          "display": "ambulatory"
        },
        "subject": {
          "reference": "Patient/patient-sedative-cross-new-003"
        },
        "serviceProvider": {
          "reference": "Organization/org-hospital-cross-sed-e"
        },
        "period": {
          "start": "2025-12-03T09:30:00+08:00",
          "end": "2025-12-03T10:00:00+08:00"
        }
      }
    },
    {
      "request": {
        "method": "PUT",
        "url": "MedicationRequest/medreq-sed-cross-new-003-e"
      },
      "resource": {
        "resourceType": "MedicationRequest",
        "id": "medreq-sed-cross-new-003-e",
        "status": "completed",
        "intent": "order",
        "medicationCodeableConcept": {
          "coding": [
            {
              "system": "http://www.whocc.no/atc",
              "code": "N05CD01",
              "display": "Flurazepam"
            }
          ],
          "text": "Flurazepam 30mg"
        },
        "subject": {
          "reference": "Patient/patient-sedative-cross-new-003"
        },
        "encounter": {
          "reference": "Encounter/encounter-sed-cross-new-003-e"
        },
        "authoredOn": "2025-12-03T09:30:00+08:00",
        "dispenseRequest": {
          "validityPeriod": {
            "start": "2025-12-03",
            "end": "2025-12-31"
          },
          "quantity": {
            "value": 28,
            "unit": "tablet"
          }
        }
      }
    },
    {
      "request": {
        "method": "PUT",
        "url": "Encounter/encounter-sed-cross-new-003-f"
      },
      "resource": {
        "resourceType": "Encounter",
        "id": "encounter-sed-cross-new-003-f",
        "status": "finished",
        "class": {
          "system": "http://terminology.hl7.org/CodeSystem/v3-ActCode",
          "code": "AMB",
          "display": "ambulatory"
        },
        "subject": {
          "reference": "Patient/patient-sedative-cross-new-003"
        },
        "serviceProvider": {
          "reference": "Organization/org-hospital-cross-sed-f"
        },
        "period": {
          "start": "2025-12-10T14:30:00+08:00",
          "end": "2025-12-10T15:00:00+08:00"
        }
      }
    },
    {
      "request": {
        "method": "PUT",
        "url": "MedicationRequest/medreq-sed-cross-new-003-f"
      },
      "resource": {
        "resourceType": "MedicationRequest",
        "id": "medreq-sed-cross-new-003-f",
        "status": "completed",
        "intent": "order",
        "medicationCodeableConcept": {
          "coding": [
            {
              "system": "http://www.whocc.no/atc",
              "code": "N05BA01",
              "display": "Diazepam"
            }
          ],
          "text": "Diazepam 5mg"
        },
        "subject": {
          "reference": "Patient/patient-sedative-cross-new-003"
        },
        "encounter": {
          "reference": "Encounter/encounter-sed-cross-new-003-f"
        },
        "authoredOn": "2025-12-10T14:30:00+08:00",
        "dispenseRequest": {
          "validityPeriod": {
            "start": "2025-12-10",
            "end": "2026-01-07"
          },
          "quantity": {
            "value": 28,
            "unit": "tablet"
          }
        }
      }
    }
  ]
}
