{
  "resourceType": "Bundle",
  "type": "transaction",
  "entry": [
    {
      "fullUrl": "urn:uuid:org-hospital-c",
      "resource": {
        "resourceType": "Organization",
        "id": "org-hospital-c",
        "identifier": [
          {
            "system": "http://www.mohw.gov.tw/hospital",
            "value": "HOSP-C-003"
          }
        ],
        "name": "丙醫院",
        "type": [
          {
            "coding": [
              {
                "system": "http://terminology.hl7.org/CodeSystem/organization-type",
                "code": "prov",
                "display": "Healthcare Provider"
              }
            ]
          }
        ]
      },
      "request": {
        "method": "PUT",
        "url": "Organization/org-hospital-c"
      }
    },
    {
      "fullUrl": "urn:uuid:org-hospital-d",
      "resource": {
        "resourceType": "Organization",
        "id": "org-hospital-d",
        "identifier": [
          {
            "system": "http://www.mohw.gov.tw/hospital",
            "value": "HOSP-D-004"
          }
        ],
        "name": "丁醫院",
        "type": [
          {
            "coding": [
              {
                "system": "http://terminology.hl7.org/CodeSystem/organization-type",
                "code": "prov",
                "display": "Healthcare Provider"
              }
            ]
          }
        ]
      },
      "request": {
        "method": "PUT",
        "url": "Organization/org-hospital-d"
      }
    },
    {
      "fullUrl": "urn:uuid:patient-lipid-overlap-001",
      "resource": {
        "resourceType": "Patient",
        "id": "patient-lipid-overlap-001",
        "identifier": [
          {
            "system": "http://www.mohw.gov.tw/patient",
            "value": "LIPID-OVERLAP-001"
          }
        ],
        "name": [
          {
            "family": "張",
            "given": ["志明"]
          }
        ],
        "gender": "male",
        "birthDate": "1968-05-20"
      },
      "request": {
        "method": "PUT",
        "url": "Patient/patient-lipid-overlap-001"
      }
    },
    {
      "fullUrl": "urn:uuid:encounter-lipid-overlap-001-c",
      "resource": {
        "resourceType": "Encounter",
        "id": "encounter-lipid-overlap-001-c",
        "status": "finished",
        "class": {
          "system": "http://terminology.hl7.org/CodeSystem/v3-ActCode",
          "code": "AMB",
          "display": "ambulatory"
        },
        "subject": {
          "reference": "Patient/patient-lipid-overlap-001"
        },
        "serviceProvider": {
          "reference": "Organization/org-hospital-c"
        },
        "period": {
          "start": "2025-10-02T10:00:00Z",
          "end": "2025-10-02T10:30:00Z"
        }
      },
      "request": {
        "method": "PUT",
        "url": "Encounter/encounter-lipid-overlap-001-c"
      }
    },
    {
      "fullUrl": "urn:uuid:med-lipid-overlap-001-c",
      "resource": {
        "resourceType": "MedicationRequest",
        "id": "med-lipid-overlap-001-c",
        "status": "completed",
        "intent": "order",
        "medicationCodeableConcept": {
          "coding": [
            {
              "system": "http://www.whocc.no/atc",
              "code": "C10AA01",
              "display": "Simvastatin (降血脂藥)"
            }
          ]
        },
        "subject": {
          "reference": "Patient/patient-lipid-overlap-001"
        },
        "encounter": {
          "reference": "Encounter/encounter-lipid-overlap-001-c"
        },
        "authoredOn": "2025-10-02T10:15:00Z",
        "dosageInstruction": [
          {
            "timing": {
              "repeat": {
                "boundsPeriod": {
                  "start": "2025-10-02",
                  "end": "2025-10-31"
                }
              }
            }
          }
        ],
        "dispenseRequest": {
          "validityPeriod": {
            "start": "2025-10-02",
            "end": "2025-10-31"
          },
          "quantity": {
            "value": 30,
            "unit": "tablets"
          }
        }
      },
      "request": {
        "method": "PUT",
        "url": "MedicationRequest/med-lipid-overlap-001-c"
      }
    },
    {
      "fullUrl": "urn:uuid:encounter-lipid-overlap-001-d",
      "resource": {
        "resourceType": "Encounter",
        "id": "encounter-lipid-overlap-001-d",
        "status": "finished",
        "class": {
          "system": "http://terminology.hl7.org/CodeSystem/v3-ActCode",
          "code": "AMB",
          "display": "ambulatory"
        },
        "subject": {
          "reference": "Patient/patient-lipid-overlap-001"
        },
        "serviceProvider": {
          "reference": "Organization/org-hospital-d"
        },
        "period": {
          "start": "2025-10-18T14:00:00Z",
          "end": "2025-10-18T14:30:00Z"
        }
      },
      "request": {
        "method": "PUT",
        "url": "Encounter/encounter-lipid-overlap-001-d"
      }
    },
    {
      "fullUrl": "urn:uuid:med-lipid-overlap-001-d",
      "resource": {
        "resourceType": "MedicationRequest",
        "id": "med-lipid-overlap-001-d",
        "status": "completed",
        "intent": "order",
        "medicationCodeableConcept": {
          "coding": [
            {
              "system": "http://www.whocc.no/atc",
              "code": "C10AA05",
              "display": "Atorvastatin (降血脂藥)"
            }
          ]
        },
        "subject": {
          "reference": "Patient/patient-lipid-overlap-001"
        },
        "encounter": {
          "reference": "Encounter/encounter-lipid-overlap-001-d"
        },
        "authoredOn": "2025-10-18T14:15:00Z",
        "dosageInstruction": [
          {
            "timing": {
              "repeat": {
                "boundsPeriod": {
                  "start": "2025-10-18",
                  "end": "2025-11-16"
                }
              }
            }
          }
        ],
        "dispenseRequest": {
          "validityPeriod": {
            "start": "2025-10-18",
            "end": "2025-11-16"
          },
          "quantity": {
            "value": 30,
            "unit": "tablets"
          }
        }
      },
      "request": {
        "method": "PUT",
        "url": "MedicationRequest/med-lipid-overlap-001-d"
      }
    },
    {
      "fullUrl": "urn:uuid:patient-lipid-overlap-002",
      "resource": {
        "resourceType": "Patient",
        "id": "patient-lipid-overlap-002",
        "identifier": [
          {
            "system": "http://www.mohw.gov.tw/patient",
            "value": "LIPID-OVERLAP-002"
          }
        ],
        "name": [
          {
            "family": "林",
            "given": ["淑芬"]
          }
        ],
        "gender": "female",
        "birthDate": "1960-09-12"
      },
      "request": {
        "method": "PUT",
        "url": "Patient/patient-lipid-overlap-002"
      }
    },
    {
      "fullUrl": "urn:uuid:encounter-lipid-overlap-002-c",
      "resource": {
        "resourceType": "Encounter",
        "id": "encounter-lipid-overlap-002-c",
        "status": "finished",
        "class": {
          "system": "http://terminology.hl7.org/CodeSystem/v3-ActCode",
          "code": "AMB",
          "display": "ambulatory"
        },
        "subject": {
          "reference": "Patient/patient-lipid-overlap-002"
        },
        "serviceProvider": {
          "reference": "Organization/org-hospital-c"
        },
        "period": {
          "start": "2025-10-08T09:00:00Z",
          "end": "2025-10-08T09:30:00Z"
        }
      },
      "request": {
        "method": "PUT",
        "url": "Encounter/encounter-lipid-overlap-002-c"
      }
    },
    {
      "fullUrl": "urn:uuid:med-lipid-overlap-002-c",
      "resource": {
        "resourceType": "MedicationRequest",
        "id": "med-lipid-overlap-002-c",
        "status": "completed",
        "intent": "order",
        "medicationCodeableConcept": {
          "coding": [
            {
              "system": "http://www.whocc.no/atc",
              "code": "C10AA07",
              "display": "Rosuvastatin (降血脂藥)"
            }
          ]
        },
        "subject": {
          "reference": "Patient/patient-lipid-overlap-002"
        },
        "encounter": {
          "reference": "Encounter/encounter-lipid-overlap-002-c"
        },
        "authoredOn": "2025-10-08T09:15:00Z",
        "dosageInstruction": [
          {
            "timing": {
              "repeat": {
                "boundsPeriod": {
                  "start": "2025-10-08",
                  "end": "2025-11-07"
                }
              }
            }
          }
        ],
        "dispenseRequest": {
          "validityPeriod": {
            "start": "2025-10-08",
            "end": "2025-11-07"
          },
          "quantity": {
            "value": 30,
            "unit": "tablets"
          }
        }
      },
      "request": {
        "method": "PUT",
        "url": "MedicationRequest/med-lipid-overlap-002-c"
      }
    },
    {
      "fullUrl": "urn:uuid:encounter-lipid-overlap-002-d",
      "resource": {
        "resourceType": "Encounter",
        "id": "encounter-lipid-overlap-002-d",
        "status": "finished",
        "class": {
          "system": "http://terminology.hl7.org/CodeSystem/v3-ActCode",
          "code": "AMB",
          "display": "ambulatory"
        },
        "subject": {
          "reference": "Patient/patient-lipid-overlap-002"
        },
        "serviceProvider": {
          "reference": "Organization/org-hospital-d"
        },
        "period": {
          "start": "2025-10-22T11:00:00Z",
          "end": "2025-10-22T11:30:00Z"
        }
      },
      "request": {
        "method": "PUT",
        "url": "Encounter/encounter-lipid-overlap-002-d"
      }
    },
    {
      "fullUrl": "urn:uuid:med-lipid-overlap-002-d",
      "resource": {
        "resourceType": "MedicationRequest",
        "id": "med-lipid-overlap-002-d",
        "status": "completed",
        "intent": "order",
        "medicationCodeableConcept": {
          "coding": [
            {
              "system": "http://www.whocc.no/atc",
              "code": "C10AB02",
              "display": "Bezafibrate (降血脂藥)"
            }
          ]
        },
        "subject": {
          "reference": "Patient/patient-lipid-overlap-002"
        },
        "encounter": {
          "reference": "Encounter/encounter-lipid-overlap-002-d"
        },
        "authoredOn": "2025-10-22T11:15:00Z",
        "dosageInstruction": [
          {
            "timing": {
              "repeat": {
                "boundsPeriod": {
                  "start": "2025-10-22",
                  "end": "2025-11-21"
                }
              }
            }
          }
        ],
        "dispenseRequest": {
          "validityPeriod": {
            "start": "2025-10-22",
            "end": "2025-11-21"
          },
          "quantity": {
            "value": 30,
            "unit": "tablets"
          }
        }
      },
      "request": {
        "method": "PUT",
        "url": "MedicationRequest/med-lipid-overlap-002-d"
      }
    },
    {
      "fullUrl": "urn:uuid:patient-lipid-overlap-003",
      "resource": {
        "resourceType": "Patient",
        "id": "patient-lipid-overlap-003",
        "identifier": [
          {
            "system": "http://www.mohw.gov.tw/patient",
            "value": "LIPID-OVERLAP-003"
          }
        ],
        "name": [
          {
            "family": "黃",
            "given": ["建國"]
          }
        ],
        "gender": "male",
        "birthDate": "1975-12-03"
      },
      "request": {
        "method": "PUT",
        "url": "Patient/patient-lipid-overlap-003"
      }
    },
    {
      "fullUrl": "urn:uuid:encounter-lipid-overlap-003-c",
      "resource": {
        "resourceType": "Encounter",
        "id": "encounter-lipid-overlap-003-c",
        "status": "finished",
        "class": {
          "system": "http://terminology.hl7.org/CodeSystem/v3-ActCode",
          "code": "AMB",
          "display": "ambulatory"
        },
        "subject": {
          "reference": "Patient/patient-lipid-overlap-003"
        },
        "serviceProvider": {
          "reference": "Organization/org-hospital-c"
        },
        "period": {
          "start": "2025-09-25T15:00:00Z",
          "end": "2025-09-25T15:30:00Z"
        }
      },
      "request": {
        "method": "PUT",
        "url": "Encounter/encounter-lipid-overlap-003-c"
      }
    },
    {
      "fullUrl": "urn:uuid:med-lipid-overlap-003-c",
      "resource": {
        "resourceType": "MedicationRequest",
        "id": "med-lipid-overlap-003-c",
        "status": "completed",
        "intent": "order",
        "medicationCodeableConcept": {
          "coding": [
            {
              "system": "http://www.whocc.no/atc",
              "code": "C10AA03",
              "display": "Pravastatin (降血脂藥)"
            }
          ]
        },
        "subject": {
          "reference": "Patient/patient-lipid-overlap-003"
        },
        "encounter": {
          "reference": "Encounter/encounter-lipid-overlap-003-c"
        },
        "authoredOn": "2025-09-25T15:15:00Z",
        "dosageInstruction": [
          {
            "timing": {
              "repeat": {
                "boundsPeriod": {
                  "start": "2025-09-25",
                  "end": "2025-10-24"
                }
              }
            }
          }
        ],
        "dispenseRequest": {
          "validityPeriod": {
            "start": "2025-09-25",
            "end": "2025-10-24"
          },
          "quantity": {
            "value": 30,
            "unit": "tablets"
          }
        }
      },
      "request": {
        "method": "PUT",
        "url": "MedicationRequest/med-lipid-overlap-003-c"
      }
    },
    {
      "fullUrl": "urn:uuid:encounter-lipid-overlap-003-d",
      "resource": {
        "resourceType": "Encounter",
        "id": "encounter-lipid-overlap-003-d",
        "status": "finished",
        "class": {
          "system": "http://terminology.hl7.org/CodeSystem/v3-ActCode",
          "code": "AMB",
          "display": "ambulatory"
        },
        "subject": {
          "reference": "Patient/patient-lipid-overlap-003"
        },
        "serviceProvider": {
          "reference": "Organization/org-hospital-d"
        },
        "period": {
          "start": "2025-10-12T13:00:00Z",
          "end": "2025-10-12T13:30:00Z"
        }
      },
      "request": {
        "method": "PUT",
        "url": "Encounter/encounter-lipid-overlap-003-d"
      }
    },
    {
      "fullUrl": "urn:uuid:med-lipid-overlap-003-d",
      "resource": {
        "resourceType": "MedicationRequest",
        "id": "med-lipid-overlap-003-d",
        "status": "completed",
        "intent": "order",
        "medicationCodeableConcept": {
          "coding": [
            {
              "system": "http://www.whocc.no/atc",
              "code": "C10AA04",
              "display": "Fluvastatin (降血脂藥)"
            }
          ]
        },
        "subject": {
          "reference": "Patient/patient-lipid-overlap-003"
        },
        "encounter": {
          "reference": "Encounter/encounter-lipid-overlap-003-d"
        },
        "authoredOn": "2025-10-12T13:15:00Z",
        "dosageInstruction": [
          {
            "timing": {
              "repeat": {
                "boundsPeriod": {
                  "start": "2025-10-12",
                  "end": "2025-11-11"
                }
              }
            }
          }
        ],
        "dispenseRequest": {
          "validityPeriod": {
            "start": "2025-10-12",
            "end": "2025-11-11"
          },
          "quantity": {
            "value": 30,
            "unit": "tablets"
          }
        }
      },
      "request": {
        "method": "PUT",
        "url": "MedicationRequest/med-lipid-overlap-003-d"
      }
    }
  ]
}
