{
  "resourceType": "Bundle",
  "type": "transaction",
  "entry": [
    {
      "fullUrl": "urn:uuid:patient-sedative-1",
      "resource": {
        "resourceType": "Patient",
        "id": "SEDATIVE-CROSS-P1",
        "gender": "female",
        "birthDate": "1965-06-12",
        "name": [{"text": "吳秀英", "family": "Wu", "given": ["Xiuying"]}]
      },
      "request": {"method": "PUT", "url": "Patient/SEDATIVE-CROSS-P1"}
    },
    {
      "fullUrl": "urn:uuid:patient-sedative-2",
      "resource": {
        "resourceType": "Patient",
        "id": "SEDATIVE-CROSS-P2",
        "gender": "male",
        "birthDate": "1968-03-25",
        "name": [{"text": "鄭志強", "family": "Zheng", "given": ["Zhiqiang"]}]
      },
      "request": {"method": "PUT", "url": "Patient/SEDATIVE-CROSS-P2"}
    },
    {
      "fullUrl": "urn:uuid:patient-sedative-3",
      "resource": {
        "resourceType": "Patient",
        "id": "SEDATIVE-CROSS-P3",
        "gender": "female",
        "birthDate": "1971-11-08",
        "name": [{"text": "林雅婷", "family": "Lin", "given": ["Yating"]}]
      },
      "request": {"method": "PUT", "url": "Patient/SEDATIVE-CROSS-P3"}
    },
    {
      "fullUrl": "urn:uuid:enc-sedative-1a",
      "resource": {
        "resourceType": "Encounter",
        "id": "SEDATIVE-E1A",
        "status": "finished",
        "class": {"system": "http://terminology.hl7.org/CodeSystem/v3-ActCode", "code": "AMB"},
        "subject": {"reference": "Patient/SEDATIVE-CROSS-P1"},
        "serviceProvider": {"reference": "Organization/HOSPITAL-C"},
        "period": {"start": "2025-10-01T10:00:00+08:00", "end": "2025-10-01T10:30:00+08:00"}
      },
      "request": {"method": "PUT", "url": "Encounter/SEDATIVE-E1A"}
    },
    {
      "fullUrl": "urn:uuid:med-sedative-1a",
      "resource": {
        "resourceType": "MedicationRequest",
        "id": "SEDATIVE-M1A",
        "status": "completed",
        "intent": "order",
        "medicationCodeableConcept": {
          "coding": [{"system": "http://www.whocc.no/atc", "code": "N05BA01", "display": "Diazepam"}],
          "text": "煩寧 Diazepam 5mg"
        },
        "subject": {"reference": "Patient/SEDATIVE-CROSS-P1"},
        "encounter": {"reference": "Encounter/SEDATIVE-E1A"},
        "authoredOn": "2025-10-01T10:00:00+08:00",
        "dosageInstruction": [{
          "timing": {"repeat": {"boundsPeriod": {"start": "2025-10-01", "end": "2025-10-28"}, "frequency": 1, "period": 1, "periodUnit": "d"}},
          "doseAndRate": [{"doseQuantity": {"value": 1, "unit": "tablet"}}]
        }],
        "dispenseRequest": {
          "validityPeriod": {"start": "2025-10-01", "end": "2025-10-28"},
          "quantity": {"value": 28, "unit": "tablet"},
          "expectedSupplyDuration": {"value": 28, "unit": "days", "system": "http://unitsofmeasure.org", "code": "d"}
        }
      },
      "request": {"method": "PUT", "url": "MedicationRequest/SEDATIVE-M1A"}
    },
    {
      "fullUrl": "urn:uuid:enc-sedative-1b",
      "resource": {
        "resourceType": "Encounter",
        "id": "SEDATIVE-E1B",
        "status": "finished",
        "class": {"system": "http://terminology.hl7.org/CodeSystem/v3-ActCode", "code": "AMB"},
        "subject": {"reference": "Patient/SEDATIVE-CROSS-P1"},
        "serviceProvider": {"reference": "Organization/HOSPITAL-D"},
        "period": {"start": "2025-10-08T14:00:00+08:00", "end": "2025-10-08T14:30:00+08:00"}
      },
      "request": {"method": "PUT", "url": "Encounter/SEDATIVE-E1B"}
    },
    {
      "fullUrl": "urn:uuid:med-sedative-1b",
      "resource": {
        "resourceType": "MedicationRequest",
        "id": "SEDATIVE-M1B",
        "status": "completed",
        "intent": "order",
        "medicationCodeableConcept": {
          "coding": [{"system": "http://www.whocc.no/atc", "code": "N05CD02", "display": "Nitrazepam"}],
          "text": "悠樂丁 Nitrazepam 5mg"
        },
        "subject": {"reference": "Patient/SEDATIVE-CROSS-P1"},
        "encounter": {"reference": "Encounter/SEDATIVE-E1B"},
        "authoredOn": "2025-10-08T14:00:00+08:00",
        "dosageInstruction": [{
          "timing": {"repeat": {"boundsPeriod": {"start": "2025-10-08", "end": "2025-11-04"}, "frequency": 1, "period": 1, "periodUnit": "d"}},
          "doseAndRate": [{"doseQuantity": {"value": 1, "unit": "tablet"}}]
        }],
        "dispenseRequest": {
          "validityPeriod": {"start": "2025-10-08", "end": "2025-11-04"},
          "quantity": {"value": 28, "unit": "tablet"},
          "expectedSupplyDuration": {"value": 28, "unit": "days", "system": "http://unitsofmeasure.org", "code": "d"}
        }
      },
      "request": {"method": "PUT", "url": "MedicationRequest/SEDATIVE-M1B"}
    },
    {
      "fullUrl": "urn:uuid:enc-sedative-2a",
      "resource": {
        "resourceType": "Encounter",
        "id": "SEDATIVE-E2A",
        "status": "finished",
        "class": {"system": "http://terminology.hl7.org/CodeSystem/v3-ActCode", "code": "AMB"},
        "subject": {"reference": "Patient/SEDATIVE-CROSS-P2"},
        "serviceProvider": {"reference": "Organization/HOSPITAL-C"},
        "period": {"start": "2025-10-03T09:00:00+08:00", "end": "2025-10-03T09:30:00+08:00"}
      },
      "request": {"method": "PUT", "url": "Encounter/SEDATIVE-E2A"}
    },
    {
      "fullUrl": "urn:uuid:med-sedative-2a",
      "resource": {
        "resourceType": "MedicationRequest",
        "id": "SEDATIVE-M2A",
        "status": "completed",
        "intent": "order",
        "medicationCodeableConcept": {
          "coding": [{"system": "http://www.whocc.no/atc", "code": "N05CF01", "display": "Zopiclone"}],
          "text": "宜眠安 Zopiclone 7.5mg"
        },
        "subject": {"reference": "Patient/SEDATIVE-CROSS-P2"},
        "encounter": {"reference": "Encounter/SEDATIVE-E2A"},
        "authoredOn": "2025-10-03T09:00:00+08:00",
        "dosageInstruction": [{
          "timing": {"repeat": {"boundsPeriod": {"start": "2025-10-03", "end": "2025-10-30"}, "frequency": 1, "period": 1, "periodUnit": "d"}},
          "doseAndRate": [{"doseQuantity": {"value": 1, "unit": "tablet"}}]
        }],
        "dispenseRequest": {
          "validityPeriod": {"start": "2025-10-03", "end": "2025-10-30"},
          "quantity": {"value": 28, "unit": "tablet"},
          "expectedSupplyDuration": {"value": 28, "unit": "days", "system": "http://unitsofmeasure.org", "code": "d"}
        }
      },
      "request": {"method": "PUT", "url": "MedicationRequest/SEDATIVE-M2A"}
    },
    {
      "fullUrl": "urn:uuid:enc-sedative-2b",
      "resource": {
        "resourceType": "Encounter",
        "id": "SEDATIVE-E2B",
        "status": "finished",
        "class": {"system": "http://terminology.hl7.org/CodeSystem/v3-ActCode", "code": "AMB"},
        "subject": {"reference": "Patient/SEDATIVE-CROSS-P2"},
        "serviceProvider": {"reference": "Organization/HOSPITAL-D"},
        "period": {"start": "2025-10-10T11:00:00+08:00", "end": "2025-10-10T11:30:00+08:00"}
      },
      "request": {"method": "PUT", "url": "Encounter/SEDATIVE-E2B"}
    },
    {
      "fullUrl": "urn:uuid:med-sedative-2b",
      "resource": {
        "resourceType": "MedicationRequest",
        "id": "SEDATIVE-M2B",
        "status": "completed",
        "intent": "order",
        "medicationCodeableConcept": {
          "coding": [{"system": "http://www.whocc.no/atc", "code": "N05CF02", "display": "Zolpidem"}],
          "text": "使蒂諾斯 Zolpidem 10mg"
        },
        "subject": {"reference": "Patient/SEDATIVE-CROSS-P2"},
        "encounter": {"reference": "Encounter/SEDATIVE-E2B"},
        "authoredOn": "2025-10-10T11:00:00+08:00",
        "dosageInstruction": [{
          "timing": {"repeat": {"boundsPeriod": {"start": "2025-10-10", "end": "2025-11-06"}, "frequency": 1, "period": 1, "periodUnit": "d"}},
          "doseAndRate": [{"doseQuantity": {"value": 1, "unit": "tablet"}}]
        }],
        "dispenseRequest": {
          "validityPeriod": {"start": "2025-10-10", "end": "2025-11-06"},
          "quantity": {"value": 28, "unit": "tablet"},
          "expectedSupplyDuration": {"value": 28, "unit": "days", "system": "http://unitsofmeasure.org", "code": "d"}
        }
      },
      "request": {"method": "PUT", "url": "MedicationRequest/SEDATIVE-M2B"}
    },
    {
      "fullUrl": "urn:uuid:enc-sedative-3a",
      "resource": {
        "resourceType": "Encounter",
        "id": "SEDATIVE-E3A",
        "status": "finished",
        "class": {"system": "http://terminology.hl7.org/CodeSystem/v3-ActCode", "code": "AMB"},
        "subject": {"reference": "Patient/SEDATIVE-CROSS-P3"},
        "serviceProvider": {"reference": "Organization/HOSPITAL-C"},
        "period": {"start": "2025-10-05T15:00:00+08:00", "end": "2025-10-05T15:30:00+08:00"}
      },
      "request": {"method": "PUT", "url": "Encounter/SEDATIVE-E3A"}
    },
    {
      "fullUrl": "urn:uuid:med-sedative-3a",
      "resource": {
        "resourceType": "MedicationRequest",
        "id": "SEDATIVE-M3A",
        "status": "completed",
        "intent": "order",
        "medicationCodeableConcept": {
          "coding": [{"system": "http://www.whocc.no/atc", "code": "N05BA12", "display": "Alprazolam"}],
          "text": "贊安諾 Alprazolam 0.5mg"
        },
        "subject": {"reference": "Patient/SEDATIVE-CROSS-P3"},
        "encounter": {"reference": "Encounter/SEDATIVE-E3A"},
        "authoredOn": "2025-10-05T15:00:00+08:00",
        "dosageInstruction": [{
          "timing": {"repeat": {"boundsPeriod": {"start": "2025-10-05", "end": "2025-11-01"}, "frequency": 1, "period": 1, "periodUnit": "d"}},
          "doseAndRate": [{"doseQuantity": {"value": 1, "unit": "tablet"}}]
        }],
        "dispenseRequest": {
          "validityPeriod": {"start": "2025-10-05", "end": "2025-11-01"},
          "quantity": {"value": 28, "unit": "tablet"},
          "expectedSupplyDuration": {"value": 28, "unit": "days", "system": "http://unitsofmeasure.org", "code": "d"}
        }
      },
      "request": {"method": "PUT", "url": "MedicationRequest/SEDATIVE-M3A"}
    },
    {
      "fullUrl": "urn:uuid:enc-sedative-3b",
      "resource": {
        "resourceType": "Encounter",
        "id": "SEDATIVE-E3B",
        "status": "finished",
        "class": {"system": "http://terminology.hl7.org/CodeSystem/v3-ActCode", "code": "AMB"},
        "subject": {"reference": "Patient/SEDATIVE-CROSS-P3"},
        "serviceProvider": {"reference": "Organization/HOSPITAL-D"},
        "period": {"start": "2025-10-12T16:00:00+08:00", "end": "2025-10-12T16:30:00+08:00"}
      },
      "request": {"method": "PUT", "url": "Encounter/SEDATIVE-E3B"}
    },
    {
      "fullUrl": "urn:uuid:med-sedative-3b",
      "resource": {
        "resourceType": "MedicationRequest",
        "id": "SEDATIVE-M3B",
        "status": "completed",
        "intent": "order",
        "medicationCodeableConcept": {
          "coding": [{"system": "http://www.whocc.no/atc", "code": "N05CD08", "display": "Midazolam"}],
          "text": "導美睡 Midazolam 7.5mg"
        },
        "subject": {"reference": "Patient/SEDATIVE-CROSS-P3"},
        "encounter": {"reference": "Encounter/SEDATIVE-E3B"},
        "authoredOn": "2025-10-12T16:00:00+08:00",
        "dosageInstruction": [{
          "timing": {"repeat": {"boundsPeriod": {"start": "2025-10-12", "end": "2025-11-08"}, "frequency": 1, "period": 1, "periodUnit": "d"}},
          "doseAndRate": [{"doseQuantity": {"value": 1, "unit": "tablet"}}]
        }],
        "dispenseRequest": {
          "validityPeriod": {"start": "2025-10-12", "end": "2025-11-08"},
          "quantity": {"value": 28, "unit": "tablet"},
          "expectedSupplyDuration": {"value": 28, "unit": "days", "system": "http://unitsofmeasure.org", "code": "d"}
        }
      },
      "request": {"method": "PUT", "url": "MedicationRequest/SEDATIVE-M3B"}
    }
  ]
}
