{
  "resourceType": "Bundle",
  "type": "transaction",
  "entry": [
    {
      "resource": {
        "resourceType": "Patient",
        "id": "cesarean-with-indication-001",
        "gender": "female",
        "birthDate": "1991-01-15"
      },
      "request": {"method": "PUT", "url": "Patient/cesarean-with-indication-001"}
    },
    {
      "resource": {
        "resourceType": "Encounter",
        "id": "cesarean-indication-enc-001",
        "status": "finished",
        "class": {"system": "http://terminology.hl7.org/CodeSystem/v3-ActCode", "code": "IMP"},
        "subject": {"reference": "Patient/cesarean-with-indication-001"},
        "period": {"start": "2025-10-06T08:00:00Z", "end": "2025-10-06T10:00:00Z"}
      },
      "request": {"method": "PUT", "url": "Encounter/cesarean-indication-enc-001"}
    },
    {
      "resource": {
        "resourceType": "Condition",
        "id": "cesarean-indication-cond-001",
        "code": {"coding": [{"system": "http://hl7.org/fhir/sid/icd-10-cm", "code": "O82.2", "display": "因前次剖腹產而剖腹生產"}]},
        "subject": {"reference": "Patient/cesarean-with-indication-001"},
        "encounter": {"reference": "Encounter/cesarean-indication-enc-001"}
      },
      "request": {"method": "PUT", "url": "Condition/cesarean-indication-cond-001"}
    },
    {
      "resource": {
        "resourceType": "Procedure",
        "id": "cesarean-indication-proc-001",
        "status": "completed",
        "code": {"coding": [{"system": "urn:oid:2.16.886.101.20003.20014", "code": "80402C", "display": "剖腹生產"}]},
        "subject": {"reference": "Patient/cesarean-with-indication-001"},
        "encounter": {"reference": "Encounter/cesarean-indication-enc-001"},
        "performedDateTime": "2025-10-06T09:00:00Z"
      },
      "request": {"method": "PUT", "url": "Procedure/cesarean-indication-proc-001"}
    }
,
    {
      "resource": {
        "resourceType": "Patient",
        "id": "cesarean-with-indication-002",
        "gender": "female",
        "birthDate": "1992-02-15"
      },
      "request": {"method": "PUT", "url": "Patient/cesarean-with-indication-002"}
    },
    {
      "resource": {
        "resourceType": "Encounter",
        "id": "cesarean-indication-enc-002",
        "status": "finished",
        "class": {"system": "http://terminology.hl7.org/CodeSystem/v3-ActCode", "code": "IMP"},
        "subject": {"reference": "Patient/cesarean-with-indication-002"},
        "period": {"start": "2025-10-07T08:00:00Z", "end": "2025-10-07T10:00:00Z"}
      },
      "request": {"method": "PUT", "url": "Encounter/cesarean-indication-enc-002"}
    },
    {
      "resource": {
        "resourceType": "Condition",
        "id": "cesarean-indication-cond-002",
        "code": {"coding": [{"system": "http://hl7.org/fhir/sid/icd-10-cm", "code": "O82.2", "display": "因前次剖腹產而剖腹生產"}]},
        "subject": {"reference": "Patient/cesarean-with-indication-002"},
        "encounter": {"reference": "Encounter/cesarean-indication-enc-002"}
      },
      "request": {"method": "PUT", "url": "Condition/cesarean-indication-cond-002"}
    },
    {
      "resource": {
        "resourceType": "Procedure",
        "id": "cesarean-indication-proc-002",
        "status": "completed",
        "code": {"coding": [{"system": "urn:oid:2.16.886.101.20003.20014", "code": "80402C", "display": "剖腹生產"}]},
        "subject": {"reference": "Patient/cesarean-with-indication-002"},
        "encounter": {"reference": "Encounter/cesarean-indication-enc-002"},
        "performedDateTime": "2025-10-07T09:00:00Z"
      },
      "request": {"method": "PUT", "url": "Procedure/cesarean-indication-proc-002"}
    }
,
    {
      "resource": {
        "resourceType": "Patient",
        "id": "cesarean-with-indication-003",
        "gender": "female",
        "birthDate": "1993-03-15"
      },
      "request": {"method": "PUT", "url": "Patient/cesarean-with-indication-003"}
    },
    {
      "resource": {
        "resourceType": "Encounter",
        "id": "cesarean-indication-enc-003",
        "status": "finished",
        "class": {"system": "http://terminology.hl7.org/CodeSystem/v3-ActCode", "code": "IMP"},
        "subject": {"reference": "Patient/cesarean-with-indication-003"},
        "period": {"start": "2025-10-08T08:00:00Z", "end": "2025-10-08T10:00:00Z"}
      },
      "request": {"method": "PUT", "url": "Encounter/cesarean-indication-enc-003"}
    },
    {
      "resource": {
        "resourceType": "Condition",
        "id": "cesarean-indication-cond-003",
        "code": {"coding": [{"system": "http://hl7.org/fhir/sid/icd-10-cm", "code": "O82.8", "display": "其他剖腹產"}]},
        "subject": {"reference": "Patient/cesarean-with-indication-003"},
        "encounter": {"reference": "Encounter/cesarean-indication-enc-003"}
      },
      "request": {"method": "PUT", "url": "Condition/cesarean-indication-cond-003"}
    },
    {
      "resource": {
        "resourceType": "Procedure",
        "id": "cesarean-indication-proc-003",
        "status": "completed",
        "code": {"coding": [{"system": "urn:oid:2.16.886.101.20003.20014", "code": "80402C", "display": "剖腹生產"}]},
        "subject": {"reference": "Patient/cesarean-with-indication-003"},
        "encounter": {"reference": "Encounter/cesarean-indication-enc-003"},
        "performedDateTime": "2025-10-08T09:00:00Z"
      },
      "request": {"method": "PUT", "url": "Procedure/cesarean-indication-proc-003"}
    }
,
    {
      "resource": {
        "resourceType": "Patient",
        "id": "cesarean-with-indication-004",
        "gender": "female",
        "birthDate": "1994-04-15"
      },
      "request": {"method": "PUT", "url": "Patient/cesarean-with-indication-004"}
    },
    {
      "resource": {
        "resourceType": "Encounter",
        "id": "cesarean-indication-enc-004",
        "status": "finished",
        "class": {"system": "http://terminology.hl7.org/CodeSystem/v3-ActCode", "code": "IMP"},
        "subject": {"reference": "Patient/cesarean-with-indication-004"},
        "period": {"start": "2025-10-09T08:00:00Z", "end": "2025-10-09T10:00:00Z"}
      },
      "request": {"method": "PUT", "url": "Encounter/cesarean-indication-enc-004"}
    },
    {
      "resource": {
        "resourceType": "Condition",
        "id": "cesarean-indication-cond-004",
        "code": {"coding": [{"system": "http://hl7.org/fhir/sid/icd-10-cm", "code": "O82.8", "display": "其他剖腹產"}]},
        "subject": {"reference": "Patient/cesarean-with-indication-004"},
        "encounter": {"reference": "Encounter/cesarean-indication-enc-004"}
      },
      "request": {"method": "PUT", "url": "Condition/cesarean-indication-cond-004"}
    },
    {
      "resource": {
        "resourceType": "Procedure",
        "id": "cesarean-indication-proc-004",
        "status": "completed",
        "code": {"coding": [{"system": "urn:oid:2.16.886.101.20003.20014", "code": "80402C", "display": "剖腹生產"}]},
        "subject": {"reference": "Patient/cesarean-with-indication-004"},
        "encounter": {"reference": "Encounter/cesarean-indication-enc-004"},
        "performedDateTime": "2025-10-09T09:00:00Z"
      },
      "request": {"method": "PUT", "url": "Procedure/cesarean-indication-proc-004"}
    }
,
    {
      "resource": {
        "resourceType": "Patient",
        "id": "cesarean-with-indication-005",
        "gender": "female",
        "birthDate": "1995-05-15"
      },
      "request": {"method": "PUT", "url": "Patient/cesarean-with-indication-005"}
    },
    {
      "resource": {
        "resourceType": "Encounter",
        "id": "cesarean-indication-enc-005",
        "status": "finished",
        "class": {"system": "http://terminology.hl7.org/CodeSystem/v3-ActCode", "code": "IMP"},
        "subject": {"reference": "Patient/cesarean-with-indication-005"},
        "period": {"start": "2025-10-10T08:00:00Z", "end": "2025-10-10T10:00:00Z"}
      },
      "request": {"method": "PUT", "url": "Encounter/cesarean-indication-enc-005"}
    },
    {
      "resource": {
        "resourceType": "Condition",
        "id": "cesarean-indication-cond-005",
        "code": {"coding": [{"system": "http://hl7.org/fhir/sid/icd-10-cm", "code": "O82.8", "display": "其他剖腹產"}]},
        "subject": {"reference": "Patient/cesarean-with-indication-005"},
        "encounter": {"reference": "Encounter/cesarean-indication-enc-005"}
      },
      "request": {"method": "PUT", "url": "Condition/cesarean-indication-cond-005"}
    },
    {
      "resource": {
        "resourceType": "Procedure",
        "id": "cesarean-indication-proc-005",
        "status": "completed",
        "code": {"coding": [{"system": "urn:oid:2.16.886.101.20003.20014", "code": "80402C", "display": "剖腹生產"}]},
        "subject": {"reference": "Patient/cesarean-with-indication-005"},
        "encounter": {"reference": "Encounter/cesarean-indication-enc-005"},
        "performedDateTime": "2025-10-10T09:00:00Z"
      },
      "request": {"method": "PUT", "url": "Procedure/cesarean-indication-proc-005"}
    }
,
    {
      "resource": {
        "resourceType": "Patient",
        "id": "cesarean-with-indication-006",
        "gender": "female",
        "birthDate": "1996-06-15"
      },
      "request": {"method": "PUT", "url": "Patient/cesarean-with-indication-006"}
    },
    {
      "resource": {
        "resourceType": "Encounter",
        "id": "cesarean-indication-enc-006",
        "status": "finished",
        "class": {"system": "http://terminology.hl7.org/CodeSystem/v3-ActCode", "code": "IMP"},
        "subject": {"reference": "Patient/cesarean-with-indication-006"},
        "period": {"start": "2025-10-11T08:00:00Z", "end": "2025-10-11T10:00:00Z"}
      },
      "request": {"method": "PUT", "url": "Encounter/cesarean-indication-enc-006"}
    },
    {
      "resource": {
        "resourceType": "Condition",
        "id": "cesarean-indication-cond-006",
        "code": {"coding": [{"system": "http://hl7.org/fhir/sid/icd-10-cm", "code": "O82.8", "display": "其他剖腹產"}]},
        "subject": {"reference": "Patient/cesarean-with-indication-006"},
        "encounter": {"reference": "Encounter/cesarean-indication-enc-006"}
      },
      "request": {"method": "PUT", "url": "Condition/cesarean-indication-cond-006"}
    },
    {
      "resource": {
        "resourceType": "Procedure",
        "id": "cesarean-indication-proc-006",
        "status": "completed",
        "code": {"coding": [{"system": "urn:oid:2.16.886.101.20003.20014", "code": "80402C", "display": "剖腹生產"}]},
        "subject": {"reference": "Patient/cesarean-with-indication-006"},
        "encounter": {"reference": "Encounter/cesarean-indication-enc-006"},
        "performedDateTime": "2025-10-11T09:00:00Z"
      },
      "request": {"method": "PUT", "url": "Procedure/cesarean-indication-proc-006"}
    }
,
    {
      "resource": {
        "resourceType": "Patient",
        "id": "cesarean-with-indication-007",
        "gender": "female",
        "birthDate": "1997-07-15"
      },
      "request": {"method": "PUT", "url": "Patient/cesarean-with-indication-007"}
    },
    {
      "resource": {
        "resourceType": "Encounter",
        "id": "cesarean-indication-enc-007",
        "status": "finished",
        "class": {"system": "http://terminology.hl7.org/CodeSystem/v3-ActCode", "code": "IMP"},
        "subject": {"reference": "Patient/cesarean-with-indication-007"},
        "period": {"start": "2025-10-12T08:00:00Z", "end": "2025-10-12T10:00:00Z"}
      },
      "request": {"method": "PUT", "url": "Encounter/cesarean-indication-enc-007"}
    },
    {
      "resource": {
        "resourceType": "Condition",
        "id": "cesarean-indication-cond-007",
        "code": {"coding": [{"system": "http://hl7.org/fhir/sid/icd-10-cm", "code": "O82.8", "display": "其他剖腹產"}]},
        "subject": {"reference": "Patient/cesarean-with-indication-007"},
        "encounter": {"reference": "Encounter/cesarean-indication-enc-007"}
      },
      "request": {"method": "PUT", "url": "Condition/cesarean-indication-cond-007"}
    },
    {
      "resource": {
        "resourceType": "Procedure",
        "id": "cesarean-indication-proc-007",
        "status": "completed",
        "code": {"coding": [{"system": "urn:oid:2.16.886.101.20003.20014", "code": "80402C", "display": "剖腹生產"}]},
        "subject": {"reference": "Patient/cesarean-with-indication-007"},
        "encounter": {"reference": "Encounter/cesarean-indication-enc-007"},
        "performedDateTime": "2025-10-12T09:00:00Z"
      },
      "request": {"method": "PUT", "url": "Procedure/cesarean-indication-proc-007"}
    }
,
    {
      "resource": {
        "resourceType": "Patient",
        "id": "cesarean-with-indication-008",
        "gender": "female",
        "birthDate": "1998-08-15"
      },
      "request": {"method": "PUT", "url": "Patient/cesarean-with-indication-008"}
    },
    {
      "resource": {
        "resourceType": "Encounter",
        "id": "cesarean-indication-enc-008",
        "status": "finished",
        "class": {"system": "http://terminology.hl7.org/CodeSystem/v3-ActCode", "code": "IMP"},
        "subject": {"reference": "Patient/cesarean-with-indication-008"},
        "period": {"start": "2025-10-13T08:00:00Z", "end": "2025-10-13T10:00:00Z"}
      },
      "request": {"method": "PUT", "url": "Encounter/cesarean-indication-enc-008"}
    },
    {
      "resource": {
        "resourceType": "Condition",
        "id": "cesarean-indication-cond-008",
        "code": {"coding": [{"system": "http://hl7.org/fhir/sid/icd-10-cm", "code": "O82.8", "display": "其他剖腹產"}]},
        "subject": {"reference": "Patient/cesarean-with-indication-008"},
        "encounter": {"reference": "Encounter/cesarean-indication-enc-008"}
      },
      "request": {"method": "PUT", "url": "Condition/cesarean-indication-cond-008"}
    },
    {
      "resource": {
        "resourceType": "Procedure",
        "id": "cesarean-indication-proc-008",
        "status": "completed",
        "code": {"coding": [{"system": "urn:oid:2.16.886.101.20003.20014", "code": "80402C", "display": "剖腹生產"}]},
        "subject": {"reference": "Patient/cesarean-with-indication-008"},
        "encounter": {"reference": "Encounter/cesarean-indication-enc-008"},
        "performedDateTime": "2025-10-13T09:00:00Z"
      },
      "request": {"method": "PUT", "url": "Procedure/cesarean-indication-proc-008"}
    }
,
    {
      "resource": {
        "resourceType": "Patient",
        "id": "cesarean-with-indication-009",
        "gender": "female",
        "birthDate": "1999-09-15"
      },
      "request": {"method": "PUT", "url": "Patient/cesarean-with-indication-009"}
    },
    {
      "resource": {
        "resourceType": "Encounter",
        "id": "cesarean-indication-enc-009",
        "status": "finished",
        "class": {"system": "http://terminology.hl7.org/CodeSystem/v3-ActCode", "code": "IMP"},
        "subject": {"reference": "Patient/cesarean-with-indication-009"},
        "period": {"start": "2025-10-14T08:00:00Z", "end": "2025-10-14T10:00:00Z"}
      },
      "request": {"method": "PUT", "url": "Encounter/cesarean-indication-enc-009"}
    },
    {
      "resource": {
        "resourceType": "Condition",
        "id": "cesarean-indication-cond-009",
        "code": {"coding": [{"system": "http://hl7.org/fhir/sid/icd-10-cm", "code": "O82.8", "display": "其他剖腹產"}]},
        "subject": {"reference": "Patient/cesarean-with-indication-009"},
        "encounter": {"reference": "Encounter/cesarean-indication-enc-009"}
      },
      "request": {"method": "PUT", "url": "Condition/cesarean-indication-cond-009"}
    },
    {
      "resource": {
        "resourceType": "Procedure",
        "id": "cesarean-indication-proc-009",
        "status": "completed",
        "code": {"coding": [{"system": "urn:oid:2.16.886.101.20003.20014", "code": "80402C", "display": "剖腹生產"}]},
        "subject": {"reference": "Patient/cesarean-with-indication-009"},
        "encounter": {"reference": "Encounter/cesarean-indication-enc-009"},
        "performedDateTime": "2025-10-14T09:00:00Z"
      },
      "request": {"method": "PUT", "url": "Procedure/cesarean-indication-proc-009"}
    }
,
    {
      "resource": {
        "resourceType": "Patient",
        "id": "cesarean-with-indication-010",
        "gender": "female",
        "birthDate": "1990-01-15"
      },
      "request": {"method": "PUT", "url": "Patient/cesarean-with-indication-010"}
    },
    {
      "resource": {
        "resourceType": "Encounter",
        "id": "cesarean-indication-enc-010",
        "status": "finished",
        "class": {"system": "http://terminology.hl7.org/CodeSystem/v3-ActCode", "code": "IMP"},
        "subject": {"reference": "Patient/cesarean-with-indication-010"},
        "period": {"start": "2025-10-15T08:00:00Z", "end": "2025-10-15T10:00:00Z"}
      },
      "request": {"method": "PUT", "url": "Encounter/cesarean-indication-enc-010"}
    },
    {
      "resource": {
        "resourceType": "Condition",
        "id": "cesarean-indication-cond-010",
        "code": {"coding": [{"system": "http://hl7.org/fhir/sid/icd-10-cm", "code": "O82.8", "display": "其他剖腹產"}]},
        "subject": {"reference": "Patient/cesarean-with-indication-010"},
        "encounter": {"reference": "Encounter/cesarean-indication-enc-010"}
      },
      "request": {"method": "PUT", "url": "Condition/cesarean-indication-cond-010"}
    },
    {
      "resource": {
        "resourceType": "Procedure",
        "id": "cesarean-indication-proc-010",
        "status": "completed",
        "code": {"coding": [{"system": "urn:oid:2.16.886.101.20003.20014", "code": "80402C", "display": "剖腹生產"}]},
        "subject": {"reference": "Patient/cesarean-with-indication-010"},
        "encounter": {"reference": "Encounter/cesarean-indication-enc-010"},
        "performedDateTime": "2025-10-15T09:00:00Z"
      },
      "request": {"method": "PUT", "url": "Procedure/cesarean-indication-proc-010"}
    }
,
    {
      "resource": {
        "resourceType": "Patient",
        "id": "cesarean-with-indication-011",
        "gender": "female",
        "birthDate": "1991-02-15"
      },
      "request": {"method": "PUT", "url": "Patient/cesarean-with-indication-011"}
    },
    {
      "resource": {
        "resourceType": "Encounter",
        "id": "cesarean-indication-enc-011",
        "status": "finished",
        "class": {"system": "http://terminology.hl7.org/CodeSystem/v3-ActCode", "code": "IMP"},
        "subject": {"reference": "Patient/cesarean-with-indication-011"},
        "period": {"start": "2025-10-16T08:00:00Z", "end": "2025-10-16T10:00:00Z"}
      },
      "request": {"method": "PUT", "url": "Encounter/cesarean-indication-enc-011"}
    },
    {
      "resource": {
        "resourceType": "Condition",
        "id": "cesarean-indication-cond-011",
        "code": {"coding": [{"system": "http://hl7.org/fhir/sid/icd-10-cm", "code": "O82.8", "display": "其他剖腹產"}]},
        "subject": {"reference": "Patient/cesarean-with-indication-011"},
        "encounter": {"reference": "Encounter/cesarean-indication-enc-011"}
      },
      "request": {"method": "PUT", "url": "Condition/cesarean-indication-cond-011"}
    },
    {
      "resource": {
        "resourceType": "Procedure",
        "id": "cesarean-indication-proc-011",
        "status": "completed",
        "code": {"coding": [{"system": "urn:oid:2.16.886.101.20003.20014", "code": "80402C", "display": "剖腹生產"}]},
        "subject": {"reference": "Patient/cesarean-with-indication-011"},
        "encounter": {"reference": "Encounter/cesarean-indication-enc-011"},
        "performedDateTime": "2025-10-16T09:00:00Z"
      },
      "request": {"method": "PUT", "url": "Procedure/cesarean-indication-proc-011"}
    }
,
    {
      "resource": {
        "resourceType": "Patient",
        "id": "cesarean-with-indication-012",
        "gender": "female",
        "birthDate": "1992-03-15"
      },
      "request": {"method": "PUT", "url": "Patient/cesarean-with-indication-012"}
    },
    {
      "resource": {
        "resourceType": "Encounter",
        "id": "cesarean-indication-enc-012",
        "status": "finished",
        "class": {"system": "http://terminology.hl7.org/CodeSystem/v3-ActCode", "code": "IMP"},
        "subject": {"reference": "Patient/cesarean-with-indication-012"},
        "period": {"start": "2025-10-17T08:00:00Z", "end": "2025-10-17T10:00:00Z"}
      },
      "request": {"method": "PUT", "url": "Encounter/cesarean-indication-enc-012"}
    },
    {
      "resource": {
        "resourceType": "Condition",
        "id": "cesarean-indication-cond-012",
        "code": {"coding": [{"system": "http://hl7.org/fhir/sid/icd-10-cm", "code": "O82.8", "display": "其他剖腹產"}]},
        "subject": {"reference": "Patient/cesarean-with-indication-012"},
        "encounter": {"reference": "Encounter/cesarean-indication-enc-012"}
      },
      "request": {"method": "PUT", "url": "Condition/cesarean-indication-cond-012"}
    },
    {
      "resource": {
        "resourceType": "Procedure",
        "id": "cesarean-indication-proc-012",
        "status": "completed",
        "code": {"coding": [{"system": "urn:oid:2.16.886.101.20003.20014", "code": "80402C", "display": "剖腹生產"}]},
        "subject": {"reference": "Patient/cesarean-with-indication-012"},
        "encounter": {"reference": "Encounter/cesarean-indication-enc-012"},
        "performedDateTime": "2025-10-17T09:00:00Z"
      },
      "request": {"method": "PUT", "url": "Procedure/cesarean-indication-proc-012"}
    }
,
    {
      "resource": {
        "resourceType": "Patient",
        "id": "cesarean-with-indication-013",
        "gender": "female",
        "birthDate": "1993-04-15"
      },
      "request": {"method": "PUT", "url": "Patient/cesarean-with-indication-013"}
    },
    {
      "resource": {
        "resourceType": "Encounter",
        "id": "cesarean-indication-enc-013",
        "status": "finished",
        "class": {"system": "http://terminology.hl7.org/CodeSystem/v3-ActCode", "code": "IMP"},
        "subject": {"reference": "Patient/cesarean-with-indication-013"},
        "period": {"start": "2025-10-18T08:00:00Z", "end": "2025-10-18T10:00:00Z"}
      },
      "request": {"method": "PUT", "url": "Encounter/cesarean-indication-enc-013"}
    },
    {
      "resource": {
        "resourceType": "Condition",
        "id": "cesarean-indication-cond-013",
        "code": {"coding": [{"system": "http://hl7.org/fhir/sid/icd-10-cm", "code": "O82.8", "display": "其他剖腹產"}]},
        "subject": {"reference": "Patient/cesarean-with-indication-013"},
        "encounter": {"reference": "Encounter/cesarean-indication-enc-013"}
      },
      "request": {"method": "PUT", "url": "Condition/cesarean-indication-cond-013"}
    },
    {
      "resource": {
        "resourceType": "Procedure",
        "id": "cesarean-indication-proc-013",
        "status": "completed",
        "code": {"coding": [{"system": "urn:oid:2.16.886.101.20003.20014", "code": "80402C", "display": "剖腹生產"}]},
        "subject": {"reference": "Patient/cesarean-with-indication-013"},
        "encounter": {"reference": "Encounter/cesarean-indication-enc-013"},
        "performedDateTime": "2025-10-18T09:00:00Z"
      },
      "request": {"method": "PUT", "url": "Procedure/cesarean-indication-proc-013"}
    }
,
    {
      "resource": {
        "resourceType": "Patient",
        "id": "cesarean-with-indication-014",
        "gender": "female",
        "birthDate": "1994-05-15"
      },
      "request": {"method": "PUT", "url": "Patient/cesarean-with-indication-014"}
    },
    {
      "resource": {
        "resourceType": "Encounter",
        "id": "cesarean-indication-enc-014",
        "status": "finished",
        "class": {"system": "http://terminology.hl7.org/CodeSystem/v3-ActCode", "code": "IMP"},
        "subject": {"reference": "Patient/cesarean-with-indication-014"},
        "period": {"start": "2025-10-19T08:00:00Z", "end": "2025-10-19T10:00:00Z"}
      },
      "request": {"method": "PUT", "url": "Encounter/cesarean-indication-enc-014"}
    },
    {
      "resource": {
        "resourceType": "Condition",
        "id": "cesarean-indication-cond-014",
        "code": {"coding": [{"system": "http://hl7.org/fhir/sid/icd-10-cm", "code": "O82.8", "display": "其他剖腹產"}]},
        "subject": {"reference": "Patient/cesarean-with-indication-014"},
        "encounter": {"reference": "Encounter/cesarean-indication-enc-014"}
      },
      "request": {"method": "PUT", "url": "Condition/cesarean-indication-cond-014"}
    },
    {
      "resource": {
        "resourceType": "Procedure",
        "id": "cesarean-indication-proc-014",
        "status": "completed",
        "code": {"coding": [{"system": "urn:oid:2.16.886.101.20003.20014", "code": "80402C", "display": "剖腹生產"}]},
        "subject": {"reference": "Patient/cesarean-with-indication-014"},
        "encounter": {"reference": "Encounter/cesarean-indication-enc-014"},
        "performedDateTime": "2025-10-19T09:00:00Z"
      },
      "request": {"method": "PUT", "url": "Procedure/cesarean-indication-proc-014"}
    }
,
    {
      "resource": {
        "resourceType": "Patient",
        "id": "cesarean-with-indication-015",
        "gender": "female",
        "birthDate": "1995-06-15"
      },
      "request": {"method": "PUT", "url": "Patient/cesarean-with-indication-015"}
    },
    {
      "resource": {
        "resourceType": "Encounter",
        "id": "cesarean-indication-enc-015",
        "status": "finished",
        "class": {"system": "http://terminology.hl7.org/CodeSystem/v3-ActCode", "code": "IMP"},
        "subject": {"reference": "Patient/cesarean-with-indication-015"},
        "period": {"start": "2025-10-20T08:00:00Z", "end": "2025-10-20T10:00:00Z"}
      },
      "request": {"method": "PUT", "url": "Encounter/cesarean-indication-enc-015"}
    },
    {
      "resource": {
        "resourceType": "Condition",
        "id": "cesarean-indication-cond-015",
        "code": {"coding": [{"system": "http://hl7.org/fhir/sid/icd-10-cm", "code": "O82.8", "display": "其他剖腹產"}]},
        "subject": {"reference": "Patient/cesarean-with-indication-015"},
        "encounter": {"reference": "Encounter/cesarean-indication-enc-015"}
      },
      "request": {"method": "PUT", "url": "Condition/cesarean-indication-cond-015"}
    },
    {
      "resource": {
        "resourceType": "Procedure",
        "id": "cesarean-indication-proc-015",
        "status": "completed",
        "code": {"coding": [{"system": "urn:oid:2.16.886.101.20003.20014", "code": "80402C", "display": "剖腹生產"}]},
        "subject": {"reference": "Patient/cesarean-with-indication-015"},
        "encounter": {"reference": "Encounter/cesarean-indication-enc-015"},
        "performedDateTime": "2025-10-20T09:00:00Z"
      },
      "request": {"method": "PUT", "url": "Procedure/cesarean-indication-proc-015"}
    }
  ]
}
