{
  "resourceType": "Bundle",
  "type": "transaction",
  "entry": [
    {
      "request": {
        "method": "PUT",
        "url": "Organization/org-hospital-cross-prostate-i"
      },
      "resource": {
        "resourceType": "Organization",
        "id": "org-hospital-cross-prostate-i",
        "name": "跨院前列腺_壬醫院",
        "type": [
          {
            "coding": [
              {
                "system": "http://terminology.hl7.org/CodeSystem/organization-type",
                "code": "prov",
                "display": "Healthcare Provider"
              }
            ]
          }
        ]
      }
    },
    {
      "request": {
        "method": "PUT",
        "url": "Organization/org-hospital-cross-prostate-j"
      },
      "resource": {
        "resourceType": "Organization",
        "id": "org-hospital-cross-prostate-j",
        "name": "跨院前列腺_癸醫院",
        "type": [
          {
            "coding": [
              {
                "system": "http://terminology.hl7.org/CodeSystem/organization-type",
                "code": "prov",
                "display": "Healthcare Provider"
              }
            ]
          }
        ]
      }
    },
    {
      "request": {
        "method": "PUT",
        "url": "Patient/patient-prostate-cross-new-001"
      },
      "resource": {
        "resourceType": "Patient",
        "id": "patient-prostate-cross-new-001",
        "identifier": [
          {
            "system": "http://www.moi.gov.tw",
            "value": "PROSTATE-CROSS-NEW-001"
          }
        ],
        "name": [
          {
            "text": "跨院前列腺新001",
            "family": "跨院",
            "given": ["前列腺新001"]
          }
        ],
        "gender": "male",
        "birthDate": "1950-04-15"
      }
    },
    {
      "request": {
        "method": "PUT",
        "url": "Patient/patient-prostate-cross-new-002"
      },
      "resource": {
        "resourceType": "Patient",
        "id": "patient-prostate-cross-new-002",
        "identifier": [
          {
            "system": "http://www.moi.gov.tw",
            "value": "PROSTATE-CROSS-NEW-002"
          }
        ],
        "name": [
          {
            "text": "跨院前列腺新002",
            "family": "跨院",
            "given": ["前列腺新002"]
          }
        ],
        "gender": "male",
        "birthDate": "1955-08-22"
      }
    },
    {
      "request": {
        "method": "PUT",
        "url": "Patient/patient-prostate-cross-new-003"
      },
      "resource": {
        "resourceType": "Patient",
        "id": "patient-prostate-cross-new-003",
        "identifier": [
          {
            "system": "http://www.moi.gov.tw",
            "value": "PROSTATE-CROSS-NEW-003"
          }
        ],
        "name": [
          {
            "text": "跨院前列腺新003",
            "family": "跨院",
            "given": ["前列腺新003"]
          }
        ],
        "gender": "male",
        "birthDate": "1958-12-10"
      }
    },
    {
      "request": {
        "method": "PUT",
        "url": "Patient/patient-prostate-cross-new-004"
      },
      "resource": {
        "resourceType": "Patient",
        "id": "patient-prostate-cross-new-004",
        "identifier": [
          {
            "system": "http://www.moi.gov.tw",
            "value": "PROSTATE-CROSS-NEW-004"
          }
        ],
        "name": [
          {
            "text": "跨院前列腺新004",
            "family": "跨院",
            "given": ["前列腺新004"]
          }
        ],
        "gender": "male",
        "birthDate": "1962-03-05"
      }
    },
    {
      "request": {
        "method": "PUT",
        "url": "Patient/patient-prostate-cross-new-005"
      },
      "resource": {
        "resourceType": "Patient",
        "id": "patient-prostate-cross-new-005",
        "identifier": [
          {
            "system": "http://www.moi.gov.tw",
            "value": "PROSTATE-CROSS-NEW-005"
          }
        ],
        "name": [
          {
            "text": "跨院前列腺新005",
            "family": "跨院",
            "given": ["前列腺新005"]
          }
        ],
        "gender": "male",
        "birthDate": "1948-07-18"
      }
    },
    {
      "request": {
        "method": "PUT",
        "url": "Encounter/encounter-prostate-cross-new-001-i"
      },
      "resource": {
        "resourceType": "Encounter",
        "id": "encounter-prostate-cross-new-001-i",
        "status": "finished",
        "class": {
          "system": "http://terminology.hl7.org/CodeSystem/v3-ActCode",
          "code": "AMB",
          "display": "ambulatory"
        },
        "subject": {
          "reference": "Patient/patient-prostate-cross-new-001"
        },
        "serviceProvider": {
          "reference": "Organization/org-hospital-cross-prostate-i"
        },
        "period": {
          "start": "2025-10-04T09:00:00+08:00",
          "end": "2025-10-04T09:30:00+08:00"
        }
      }
    },
    {
      "request": {
        "method": "PUT",
        "url": "MedicationRequest/medreq-prostate-cross-new-001-i"
      },
      "resource": {
        "resourceType": "MedicationRequest",
        "id": "medreq-prostate-cross-new-001-i",
        "status": "completed",
        "intent": "order",
        "medicationCodeableConcept": {
          "coding": [
            {
              "system": "http://www.whocc.no/atc",
              "code": "G04CA01",
              "display": "Alfuzosin"
            }
          ],
          "text": "Alfuzosin 10mg"
        },
        "subject": {
          "reference": "Patient/patient-prostate-cross-new-001"
        },
        "encounter": {
          "reference": "Encounter/encounter-prostate-cross-new-001-i"
        },
        "authoredOn": "2025-10-04T09:00:00+08:00",
        "dispenseRequest": {
          "validityPeriod": {
            "start": "2025-10-04",
            "end": "2025-11-01"
          },
          "quantity": {
            "value": 28,
            "unit": "tablet"
          }
        }
      }
    },
    {
      "request": {
        "method": "PUT",
        "url": "Encounter/encounter-prostate-cross-new-001-j"
      },
      "resource": {
        "resourceType": "Encounter",
        "id": "encounter-prostate-cross-new-001-j",
        "status": "finished",
        "class": {
          "system": "http://terminology.hl7.org/CodeSystem/v3-ActCode",
          "code": "AMB",
          "display": "ambulatory"
        },
        "subject": {
          "reference": "Patient/patient-prostate-cross-new-001"
        },
        "serviceProvider": {
          "reference": "Organization/org-hospital-cross-prostate-j"
        },
        "period": {
          "start": "2025-10-14T14:00:00+08:00",
          "end": "2025-10-14T14:30:00+08:00"
        }
      }
    },
    {
      "request": {
        "method": "PUT",
        "url": "MedicationRequest/medreq-prostate-cross-new-001-j"
      },
      "resource": {
        "resourceType": "MedicationRequest",
        "id": "medreq-prostate-cross-new-001-j",
        "status": "completed",
        "intent": "order",
        "medicationCodeableConcept": {
          "coding": [
            {
              "system": "http://www.whocc.no/atc",
              "code": "G04CA02",
              "display": "Tamsulosin"
            }
          ],
          "text": "Tamsulosin 0.4mg"
        },
        "subject": {
          "reference": "Patient/patient-prostate-cross-new-001"
        },
        "encounter": {
          "reference": "Encounter/encounter-prostate-cross-new-001-j"
        },
        "authoredOn": "2025-10-14T14:00:00+08:00",
        "dispenseRequest": {
          "validityPeriod": {
            "start": "2025-10-14",
            "end": "2025-11-11"
          },
          "quantity": {
            "value": 28,
            "unit": "capsule"
          }
        }
      }
    },
    {
      "request": {
        "method": "PUT",
        "url": "Encounter/encounter-prostate-cross-new-002-i"
      },
      "resource": {
        "resourceType": "Encounter",
        "id": "encounter-prostate-cross-new-002-i",
        "status": "finished",
        "class": {
          "system": "http://terminology.hl7.org/CodeSystem/v3-ActCode",
          "code": "AMB",
          "display": "ambulatory"
        },
        "subject": {
          "reference": "Patient/patient-prostate-cross-new-002"
        },
        "serviceProvider": {
          "reference": "Organization/org-hospital-cross-prostate-i"
        },
        "period": {
          "start": "2025-11-07T10:00:00+08:00",
          "end": "2025-11-07T10:30:00+08:00"
        }
      }
    },
    {
      "request": {
        "method": "PUT",
        "url": "MedicationRequest/medreq-prostate-cross-new-002-i"
      },
      "resource": {
        "resourceType": "MedicationRequest",
        "id": "medreq-prostate-cross-new-002-i",
        "status": "completed",
        "intent": "order",
        "medicationCodeableConcept": {
          "coding": [
            {
              "system": "http://www.whocc.no/atc",
              "code": "G04CA03",
              "display": "Terazosin"
            }
          ],
          "text": "Terazosin 5mg"
        },
        "subject": {
          "reference": "Patient/patient-prostate-cross-new-002"
        },
        "encounter": {
          "reference": "Encounter/encounter-prostate-cross-new-002-i"
        },
        "authoredOn": "2025-11-07T10:00:00+08:00",
        "dispenseRequest": {
          "validityPeriod": {
            "start": "2025-11-07",
            "end": "2025-12-05"
          },
          "quantity": {
            "value": 28,
            "unit": "tablet"
          }
        }
      }
    },
    {
      "request": {
        "method": "PUT",
        "url": "Encounter/encounter-prostate-cross-new-002-j"
      },
      "resource": {
        "resourceType": "Encounter",
        "id": "encounter-prostate-cross-new-002-j",
        "status": "finished",
        "class": {
          "system": "http://terminology.hl7.org/CodeSystem/v3-ActCode",
          "code": "AMB",
          "display": "ambulatory"
        },
        "subject": {
          "reference": "Patient/patient-prostate-cross-new-002"
        },
        "serviceProvider": {
          "reference": "Organization/org-hospital-cross-prostate-j"
        },
        "period": {
          "start": "2025-11-16T15:00:00+08:00",
          "end": "2025-11-16T15:30:00+08:00"
        }
      }
    },
    {
      "request": {
        "method": "PUT",
        "url": "MedicationRequest/medreq-prostate-cross-new-002-j"
      },
      "resource": {
        "resourceType": "MedicationRequest",
        "id": "medreq-prostate-cross-new-002-j",
        "status": "completed",
        "intent": "order",
        "medicationCodeableConcept": {
          "coding": [
            {
              "system": "http://www.whocc.no/atc",
              "code": "G04CA04",
              "display": "Doxazosin"
            }
          ],
          "text": "Doxazosin 4mg"
        },
        "subject": {
          "reference": "Patient/patient-prostate-cross-new-002"
        },
        "encounter": {
          "reference": "Encounter/encounter-prostate-cross-new-002-j"
        },
        "authoredOn": "2025-11-16T15:00:00+08:00",
        "dispenseRequest": {
          "validityPeriod": {
            "start": "2025-11-16",
            "end": "2025-12-14"
          },
          "quantity": {
            "value": 28,
            "unit": "tablet"
          }
        }
      }
    },
    {
      "request": {
        "method": "PUT",
        "url": "Encounter/encounter-prostate-cross-new-003-i"
      },
      "resource": {
        "resourceType": "Encounter",
        "id": "encounter-prostate-cross-new-003-i",
        "status": "finished",
        "class": {
          "system": "http://terminology.hl7.org/CodeSystem/v3-ActCode",
          "code": "AMB",
          "display": "ambulatory"
        },
        "subject": {
          "reference": "Patient/patient-prostate-cross-new-003"
        },
        "serviceProvider": {
          "reference": "Organization/org-hospital-cross-prostate-i"
        },
        "period": {
          "start": "2025-12-03T09:30:00+08:00",
          "end": "2025-12-03T10:00:00+08:00"
        }
      }
    },
    {
      "request": {
        "method": "PUT",
        "url": "MedicationRequest/medreq-prostate-cross-new-003-i"
      },
      "resource": {
        "resourceType": "MedicationRequest",
        "id": "medreq-prostate-cross-new-003-i",
        "status": "completed",
        "intent": "order",
        "medicationCodeableConcept": {
          "coding": [
            {
              "system": "http://www.whocc.no/atc",
              "code": "G04CB01",
              "display": "Finasteride"
            }
          ],
          "text": "Finasteride 5mg"
        },
        "subject": {
          "reference": "Patient/patient-prostate-cross-new-003"
        },
        "encounter": {
          "reference": "Encounter/encounter-prostate-cross-new-003-i"
        },
        "authoredOn": "2025-12-03T09:30:00+08:00",
        "dispenseRequest": {
          "validityPeriod": {
            "start": "2025-12-03",
            "end": "2025-12-31"
          },
          "quantity": {
            "value": 28,
            "unit": "tablet"
          }
        }
      }
    },
    {
      "request": {
        "method": "PUT",
        "url": "Encounter/encounter-prostate-cross-new-003-j"
      },
      "resource": {
        "resourceType": "Encounter",
        "id": "encounter-prostate-cross-new-003-j",
        "status": "finished",
        "class": {
          "system": "http://terminology.hl7.org/CodeSystem/v3-ActCode",
          "code": "AMB",
          "display": "ambulatory"
        },
        "subject": {
          "reference": "Patient/patient-prostate-cross-new-003"
        },
        "serviceProvider": {
          "reference": "Organization/org-hospital-cross-prostate-j"
        },
        "period": {
          "start": "2025-12-10T14:30:00+08:00",
          "end": "2025-12-10T15:00:00+08:00"
        }
      }
    },
    {
      "request": {
        "method": "PUT",
        "url": "MedicationRequest/medreq-prostate-cross-new-003-j"
      },
      "resource": {
        "resourceType": "MedicationRequest",
        "id": "medreq-prostate-cross-new-003-j",
        "status": "completed",
        "intent": "order",
        "medicationCodeableConcept": {
          "coding": [
            {
              "system": "http://www.whocc.no/atc",
              "code": "G04CB02",
              "display": "Dutasteride"
            }
          ],
          "text": "Dutasteride 0.5mg"
        },
        "subject": {
          "reference": "Patient/patient-prostate-cross-new-003"
        },
        "encounter": {
          "reference": "Encounter/encounter-prostate-cross-new-003-j"
        },
        "authoredOn": "2025-12-10T14:30:00+08:00",
        "dispenseRequest": {
          "validityPeriod": {
            "start": "2025-12-10",
            "end": "2026-01-07"
          },
          "quantity": {
            "value": 28,
            "unit": "capsule"
          }
        }
      }
    },
    {
      "request": {
        "method": "PUT",
        "url": "Encounter/encounter-prostate-cross-new-004-i"
      },
      "resource": {
        "resourceType": "Encounter",
        "id": "encounter-prostate-cross-new-004-i",
        "status": "finished",
        "class": {
          "system": "http://terminology.hl7.org/CodeSystem/v3-ActCode",
          "code": "AMB",
          "display": "ambulatory"
        },
        "subject": {
          "reference": "Patient/patient-prostate-cross-new-004"
        },
        "serviceProvider": {
          "reference": "Organization/org-hospital-cross-prostate-i"
        },
        "period": {
          "start": "2025-10-22T11:00:00+08:00",
          "end": "2025-10-22T11:30:00+08:00"
        }
      }
    },
    {
      "request": {
        "method": "PUT",
        "url": "MedicationRequest/medreq-prostate-cross-new-004-i"
      },
      "resource": {
        "resourceType": "MedicationRequest",
        "id": "medreq-prostate-cross-new-004-i",
        "status": "completed",
        "intent": "order",
        "medicationCodeableConcept": {
          "coding": [
            {
              "system": "http://www.whocc.no/atc",
              "code": "G04CA52",
              "display": "Tamsulosin and dutasteride"
            }
          ],
          "text": "Tamsulosin 0.4mg + Dutasteride 0.5mg"
        },
        "subject": {
          "reference": "Patient/patient-prostate-cross-new-004"
        },
        "encounter": {
          "reference": "Encounter/encounter-prostate-cross-new-004-i"
        },
        "authoredOn": "2025-10-22T11:00:00+08:00",
        "dispenseRequest": {
          "validityPeriod": {
            "start": "2025-10-22",
            "end": "2025-11-19"
          },
          "quantity": {
            "value": 28,
            "unit": "capsule"
          }
        }
      }
    },
    {
      "request": {
        "method": "PUT",
        "url": "Encounter/encounter-prostate-cross-new-004-j"
      },
      "resource": {
        "resourceType": "Encounter",
        "id": "encounter-prostate-cross-new-004-j",
        "status": "finished",
        "class": {
          "system": "http://terminology.hl7.org/CodeSystem/v3-ActCode",
          "code": "AMB",
          "display": "ambulatory"
        },
        "subject": {
          "reference": "Patient/patient-prostate-cross-new-004"
        },
        "serviceProvider": {
          "reference": "Organization/org-hospital-cross-prostate-j"
        },
        "period": {
          "start": "2025-10-30T16:00:00+08:00",
          "end": "2025-10-30T16:30:00+08:00"
        }
      }
    },
    {
      "request": {
        "method": "PUT",
        "url": "MedicationRequest/medreq-prostate-cross-new-004-j"
      },
      "resource": {
        "resourceType": "MedicationRequest",
        "id": "medreq-prostate-cross-new-004-j",
        "status": "completed",
        "intent": "order",
        "medicationCodeableConcept": {
          "coding": [
            {
              "system": "http://www.whocc.no/atc",
              "code": "G04CA01",
              "display": "Alfuzosin"
            }
          ],
          "text": "Alfuzosin 10mg"
        },
        "subject": {
          "reference": "Patient/patient-prostate-cross-new-004"
        },
        "encounter": {
          "reference": "Encounter/encounter-prostate-cross-new-004-j"
        },
        "authoredOn": "2025-10-30T16:00:00+08:00",
        "dispenseRequest": {
          "validityPeriod": {
            "start": "2025-10-30",
            "end": "2025-11-27"
          },
          "quantity": {
            "value": 28,
            "unit": "tablet"
          }
        }
      }
    },
    {
      "request": {
        "method": "PUT",
        "url": "Encounter/encounter-prostate-cross-new-005-i"
      },
      "resource": {
        "resourceType": "Encounter",
        "id": "encounter-prostate-cross-new-005-i",
        "status": "finished",
        "class": {
          "system": "http://terminology.hl7.org/CodeSystem/v3-ActCode",
          "code": "AMB",
          "display": "ambulatory"
        },
        "subject": {
          "reference": "Patient/patient-prostate-cross-new-005"
        },
        "serviceProvider": {
          "reference": "Organization/org-hospital-cross-prostate-i"
        },
        "period": {
          "start": "2025-11-20T10:30:00+08:00",
          "end": "2025-11-20T11:00:00+08:00"
        }
      }
    },
    {
      "request": {
        "method": "PUT",
        "url": "MedicationRequest/medreq-prostate-cross-new-005-i"
      },
      "resource": {
        "resourceType": "MedicationRequest",
        "id": "medreq-prostate-cross-new-005-i",
        "status": "completed",
        "intent": "order",
        "medicationCodeableConcept": {
          "coding": [
            {
              "system": "http://www.whocc.no/atc",
              "code": "G04CA02",
              "display": "Tamsulosin"
            }
          ],
          "text": "Tamsulosin 0.4mg"
        },
        "subject": {
          "reference": "Patient/patient-prostate-cross-new-005"
        },
        "encounter": {
          "reference": "Encounter/encounter-prostate-cross-new-005-i"
        },
        "authoredOn": "2025-11-20T10:30:00+08:00",
        "dispenseRequest": {
          "validityPeriod": {
            "start": "2025-11-20",
            "end": "2025-12-18"
          },
          "quantity": {
            "value": 28,
            "unit": "capsule"
          }
        }
      }
    },
    {
      "request": {
        "method": "PUT",
        "url": "Encounter/encounter-prostate-cross-new-005-j"
      },
      "resource": {
        "resourceType": "Encounter",
        "id": "encounter-prostate-cross-new-005-j",
        "status": "finished",
        "class": {
          "system": "http://terminology.hl7.org/CodeSystem/v3-ActCode",
          "code": "AMB",
          "display": "ambulatory"
        },
        "subject": {
          "reference": "Patient/patient-prostate-cross-new-005"
        },
        "serviceProvider": {
          "reference": "Organization/org-hospital-cross-prostate-j"
        },
        "period": {
          "start": "2025-11-28T15:30:00+08:00",
          "end": "2025-11-28T16:00:00+08:00"
        }
      }
    },
    {
      "request": {
        "method": "PUT",
        "url": "MedicationRequest/medreq-prostate-cross-new-005-j"
      },
      "resource": {
        "resourceType": "MedicationRequest",
        "id": "medreq-prostate-cross-new-005-j",
        "status": "completed",
        "intent": "order",
        "medicationCodeableConcept": {
          "coding": [
            {
              "system": "http://www.whocc.no/atc",
              "code": "G04CA03",
              "display": "Terazosin"
            }
          ],
          "text": "Terazosin 2mg"
        },
        "subject": {
          "reference": "Patient/patient-prostate-cross-new-005"
        },
        "encounter": {
          "reference": "Encounter/encounter-prostate-cross-new-005-j"
        },
        "authoredOn": "2025-11-28T15:30:00+08:00",
        "dispenseRequest": {
          "validityPeriod": {
            "start": "2025-11-28",
            "end": "2025-12-26"
          },
          "quantity": {
            "value": 28,
            "unit": "tablet"
          }
        }
      }
    }
  ]
}
