{
  "resourceType": "Bundle",
  "type": "transaction",
  "entry": [
    {
      "request": {
        "method": "PUT",
        "url": "Organization/org-hospital-cross-antithromb-a"
      },
      "resource": {
        "resourceType": "Organization",
        "id": "org-hospital-cross-antithromb-a",
        "name": "子醫院_跨院抗血栓",
        "type": [
          {
            "coding": [
              {
                "system": "http://terminology.hl7.org/CodeSystem/organization-type",
                "code": "prov",
                "display": "Healthcare Provider"
              }
            ]
          }
        ]
      }
    },
    {
      "request": {
        "method": "PUT",
        "url": "Organization/org-hospital-cross-antithromb-b"
      },
      "resource": {
        "resourceType": "Organization",
        "id": "org-hospital-cross-antithromb-b",
        "name": "丑醫院_跨院抗血栓",
        "type": [
          {
            "coding": [
              {
                "system": "http://terminology.hl7.org/CodeSystem/organization-type",
                "code": "prov",
                "display": "Healthcare Provider"
              }
            ]
          }
        ]
      }
    },
    {
      "request": {
        "method": "PUT",
        "url": "Patient/patient-antithromb-cross-001"
      },
      "resource": {
        "resourceType": "Patient",
        "id": "patient-antithromb-cross-001",
        "identifier": [
          {
            "system": "http://www.moi.gov.tw",
            "value": "ANTITHROMB-CROSS-001"
          }
        ],
        "name": [
          {
            "text": "跨院抗血栓001",
            "family": "跨院",
            "given": ["抗血栓001"]
          }
        ],
        "gender": "male",
        "birthDate": "1952-04-18"
      }
    },
    {
      "request": {
        "method": "PUT",
        "url": "Patient/patient-antithromb-cross-002"
      },
      "resource": {
        "resourceType": "Patient",
        "id": "patient-antithromb-cross-002",
        "identifier": [
          {
            "system": "http://www.moi.gov.tw",
            "value": "ANTITHROMB-CROSS-002"
          }
        ],
        "name": [
          {
            "text": "跨院抗血栓002",
            "family": "跨院",
            "given": ["抗血栓002"]
          }
        ],
        "gender": "female",
        "birthDate": "1948-09-25"
      }
    },
    {
      "request": {
        "method": "PUT",
        "url": "Patient/patient-antithromb-cross-003"
      },
      "resource": {
        "resourceType": "Patient",
        "id": "patient-antithromb-cross-003",
        "identifier": [
          {
            "system": "http://www.moi.gov.tw",
            "value": "ANTITHROMB-CROSS-003"
          }
        ],
        "name": [
          {
            "text": "跨院抗血栓003",
            "family": "跨院",
            "given": ["抗血栓003"]
          }
        ],
        "gender": "male",
        "birthDate": "1955-12-10"
      }
    },
    {
      "request": {
        "method": "PUT",
        "url": "Encounter/encounter-antithromb-cross-001-hosp-a"
      },
      "resource": {
        "resourceType": "Encounter",
        "id": "encounter-antithromb-cross-001-hosp-a",
        "status": "finished",
        "class": {
          "system": "http://terminology.hl7.org/CodeSystem/v3-ActCode",
          "code": "AMB",
          "display": "ambulatory"
        },
        "subject": {
          "reference": "Patient/patient-antithromb-cross-001"
        },
        "serviceProvider": {
          "reference": "Organization/org-hospital-cross-antithromb-a"
        },
        "period": {
          "start": "2024-01-15T09:00:00+08:00",
          "end": "2024-01-15T10:00:00+08:00"
        }
      }
    },
    {
      "request": {
        "method": "PUT",
        "url": "Encounter/encounter-antithromb-cross-001-hosp-b"
      },
      "resource": {
        "resourceType": "Encounter",
        "id": "encounter-antithromb-cross-001-hosp-b",
        "status": "finished",
        "class": {
          "system": "http://terminology.hl7.org/CodeSystem/v3-ActCode",
          "code": "AMB",
          "display": "ambulatory"
        },
        "subject": {
          "reference": "Patient/patient-antithromb-cross-001"
        },
        "serviceProvider": {
          "reference": "Organization/org-hospital-cross-antithromb-b"
        },
        "period": {
          "start": "2024-01-22T14:00:00+08:00",
          "end": "2024-01-22T15:00:00+08:00"
        }
      }
    },
    {
      "request": {
        "method": "PUT",
        "url": "Encounter/encounter-antithromb-cross-002-hosp-a"
      },
      "resource": {
        "resourceType": "Encounter",
        "id": "encounter-antithromb-cross-002-hosp-a",
        "status": "finished",
        "class": {
          "system": "http://terminology.hl7.org/CodeSystem/v3-ActCode",
          "code": "AMB",
          "display": "ambulatory"
        },
        "subject": {
          "reference": "Patient/patient-antithromb-cross-002"
        },
        "serviceProvider": {
          "reference": "Organization/org-hospital-cross-antithromb-a"
        },
        "period": {
          "start": "2024-02-10T10:30:00+08:00",
          "end": "2024-02-10T11:30:00+08:00"
        }
      }
    },
    {
      "request": {
        "method": "PUT",
        "url": "Encounter/encounter-antithromb-cross-002-hosp-b"
      },
      "resource": {
        "resourceType": "Encounter",
        "id": "encounter-antithromb-cross-002-hosp-b",
        "status": "finished",
        "class": {
          "system": "http://terminology.hl7.org/CodeSystem/v3-ActCode",
          "code": "AMB",
          "display": "ambulatory"
        },
        "subject": {
          "reference": "Patient/patient-antithromb-cross-002"
        },
        "serviceProvider": {
          "reference": "Organization/org-hospital-cross-antithromb-b"
        },
        "period": {
          "start": "2024-02-17T15:00:00+08:00",
          "end": "2024-02-17T16:00:00+08:00"
        }
      }
    },
    {
      "request": {
        "method": "PUT",
        "url": "Encounter/encounter-antithromb-cross-003-hosp-a"
      },
      "resource": {
        "resourceType": "Encounter",
        "id": "encounter-antithromb-cross-003-hosp-a",
        "status": "finished",
        "class": {
          "system": "http://terminology.hl7.org/CodeSystem/v3-ActCode",
          "code": "AMB",
          "display": "ambulatory"
        },
        "subject": {
          "reference": "Patient/patient-antithromb-cross-003"
        },
        "serviceProvider": {
          "reference": "Organization/org-hospital-cross-antithromb-a"
        },
        "period": {
          "start": "2024-03-05T09:00:00+08:00",
          "end": "2024-03-05T10:00:00+08:00"
        }
      }
    },
    {
      "request": {
        "method": "PUT",
        "url": "Encounter/encounter-antithromb-cross-003-hosp-b"
      },
      "resource": {
        "resourceType": "Encounter",
        "id": "encounter-antithromb-cross-003-hosp-b",
        "status": "finished",
        "class": {
          "system": "http://terminology.hl7.org/CodeSystem/v3-ActCode",
          "code": "AMB",
          "display": "ambulatory"
        },
        "subject": {
          "reference": "Patient/patient-antithromb-cross-003"
        },
        "serviceProvider": {
          "reference": "Organization/org-hospital-cross-antithromb-b"
        },
        "period": {
          "start": "2024-03-12T13:30:00+08:00",
          "end": "2024-03-12T14:30:00+08:00"
        }
      }
    },
    {
      "request": {
        "method": "PUT",
        "url": "MedicationRequest/medreq-antithromb-cross-001-a"
      },
      "resource": {
        "resourceType": "MedicationRequest",
        "id": "medreq-antithromb-cross-001-a",
        "status": "completed",
        "intent": "order",
        "medicationCodeableConcept": {
          "coding": [
            {
              "system": "http://www.whocc.no/atc",
              "code": "B01AA03",
              "display": "Warfarin"
            }
          ],
          "text": "Warfarin 5mg"
        },
        "subject": {
          "reference": "Patient/patient-antithromb-cross-001"
        },
        "encounter": {
          "reference": "Encounter/encounter-antithromb-cross-001-hosp-a"
        },
        "authoredOn": "2024-01-15T09:30:00+08:00",
        "dispenseRequest": {
          "validityPeriod": {
            "start": "2024-01-15",
            "end": "2024-01-29"
          },
          "quantity": {
            "value": 28,
            "unit": "tablet"
          }
        }
      }
    },
    {
      "request": {
        "method": "PUT",
        "url": "MedicationRequest/medreq-antithromb-cross-001-b"
      },
      "resource": {
        "resourceType": "MedicationRequest",
        "id": "medreq-antithromb-cross-001-b",
        "status": "completed",
        "intent": "order",
        "medicationCodeableConcept": {
          "coding": [
            {
              "system": "http://www.whocc.no/atc",
              "code": "B01AC06",
              "display": "Acetylsalicylic acid"
            }
          ],
          "text": "Aspirin 100mg"
        },
        "subject": {
          "reference": "Patient/patient-antithromb-cross-001"
        },
        "encounter": {
          "reference": "Encounter/encounter-antithromb-cross-001-hosp-b"
        },
        "authoredOn": "2024-01-22T14:30:00+08:00",
        "dispenseRequest": {
          "validityPeriod": {
            "start": "2024-01-22",
            "end": "2024-02-05"
          },
          "quantity": {
            "value": 28,
            "unit": "tablet"
          }
        }
      }
    },
    {
      "request": {
        "method": "PUT",
        "url": "MedicationRequest/medreq-antithromb-cross-002-a"
      },
      "resource": {
        "resourceType": "MedicationRequest",
        "id": "medreq-antithromb-cross-002-a",
        "status": "completed",
        "intent": "order",
        "medicationCodeableConcept": {
          "coding": [
            {
              "system": "http://www.whocc.no/atc",
              "code": "B01AC04",
              "display": "Clopidogrel"
            }
          ],
          "text": "Clopidogrel 75mg"
        },
        "subject": {
          "reference": "Patient/patient-antithromb-cross-002"
        },
        "encounter": {
          "reference": "Encounter/encounter-antithromb-cross-002-hosp-a"
        },
        "authoredOn": "2024-02-10T11:00:00+08:00",
        "dispenseRequest": {
          "validityPeriod": {
            "start": "2024-02-10",
            "end": "2024-02-24"
          },
          "quantity": {
            "value": 28,
            "unit": "tablet"
          }
        }
      }
    },
    {
      "request": {
        "method": "PUT",
        "url": "MedicationRequest/medreq-antithromb-cross-002-b"
      },
      "resource": {
        "resourceType": "MedicationRequest",
        "id": "medreq-antithromb-cross-002-b",
        "status": "completed",
        "intent": "order",
        "medicationCodeableConcept": {
          "coding": [
            {
              "system": "http://www.whocc.no/atc",
              "code": "B01AF01",
              "display": "Rivaroxaban"
            }
          ],
          "text": "Rivaroxaban 20mg"
        },
        "subject": {
          "reference": "Patient/patient-antithromb-cross-002"
        },
        "encounter": {
          "reference": "Encounter/encounter-antithromb-cross-002-hosp-b"
        },
        "authoredOn": "2024-02-17T15:30:00+08:00",
        "dispenseRequest": {
          "validityPeriod": {
            "start": "2024-02-17",
            "end": "2024-03-02"
          },
          "quantity": {
            "value": 28,
            "unit": "tablet"
          }
        }
      }
    },
    {
      "request": {
        "method": "PUT",
        "url": "MedicationRequest/medreq-antithromb-cross-003-a"
      },
      "resource": {
        "resourceType": "MedicationRequest",
        "id": "medreq-antithromb-cross-003-a",
        "status": "completed",
        "intent": "order",
        "medicationCodeableConcept": {
          "coding": [
            {
              "system": "http://www.whocc.no/atc",
              "code": "B01AE07",
              "display": "Dabigatran"
            }
          ],
          "text": "Dabigatran 110mg"
        },
        "subject": {
          "reference": "Patient/patient-antithromb-cross-003"
        },
        "encounter": {
          "reference": "Encounter/encounter-antithromb-cross-003-hosp-a"
        },
        "authoredOn": "2024-03-05T09:30:00+08:00",
        "dispenseRequest": {
          "validityPeriod": {
            "start": "2024-03-05",
            "end": "2024-03-19"
          },
          "quantity": {
            "value": 28,
            "unit": "capsule"
          }
        }
      }
    },
    {
      "request": {
        "method": "PUT",
        "url": "MedicationRequest/medreq-antithromb-cross-003-b"
      },
      "resource": {
        "resourceType": "MedicationRequest",
        "id": "medreq-antithromb-cross-003-b",
        "status": "completed",
        "intent": "order",
        "medicationCodeableConcept": {
          "coding": [
            {
              "system": "http://www.whocc.no/atc",
              "code": "B01AF02",
              "display": "Apixaban"
            }
          ],
          "text": "Apixaban 5mg"
        },
        "subject": {
          "reference": "Patient/patient-antithromb-cross-003"
        },
        "encounter": {
          "reference": "Encounter/encounter-antithromb-cross-003-hosp-b"
        },
        "authoredOn": "2024-03-12T14:00:00+08:00",
        "dispenseRequest": {
          "validityPeriod": {
            "start": "2024-03-12",
            "end": "2024-03-26"
          },
          "quantity": {
            "value": 28,
            "unit": "tablet"
          }
        }
      }
    }
  ]
}
