{
  "resourceType": "Bundle",
  "type": "transaction",
  "entry": [
    {
      "request": {"method": "PUT", "url": "Organization/org-dementia-hospice"},
      "resource": {
        "resourceType": "Organization",
        "id": "org-dementia-hospice",
        "name": "失智症安寧照護醫院"
      }
    },
    {
      "request": {"method": "PUT", "url": "Patient/pt-dementia-001"},
      "resource": {
        "resourceType": "Patient",
        "id": "pt-dementia-001",
        "gender": "female",
        "birthDate": "1940-01-01"
      }
    },
    {
      "request": {"method": "PUT", "url": "Patient/pt-dementia-002"},
      "resource": {
        "resourceType": "Patient",
        "id": "pt-dementia-002",
        "gender": "male",
        "birthDate": "1938-01-01"
      }
    },
    {
      "request": {"method": "PUT", "url": "Patient/pt-dementia-003"},
      "resource": {
        "resourceType": "Patient",
        "id": "pt-dementia-003",
        "gender": "female",
        "birthDate": "1942-01-01"
      }
    },
    {
      "request": {"method": "PUT", "url": "Patient/pt-dementia-004"},
      "resource": {
        "resourceType": "Patient",
        "id": "pt-dementia-004",
        "gender": "male",
        "birthDate": "1935-01-01"
      }
    },
    {
      "request": {"method": "PUT", "url": "Patient/pt-dementia-005"},
      "resource": {
        "resourceType": "Patient",
        "id": "pt-dementia-005",
        "gender": "female",
        "birthDate": "1945-01-01"
      }
    },
    {
      "request": {"method": "PUT", "url": "Encounter/enc-dementia-001"},
      "resource": {
        "resourceType": "Encounter",
        "id": "enc-dementia-001",
        "status": "finished",
        "class": {"system": "http://terminology.hl7.org/CodeSystem/v3-ActCode", "code": "IMP"},
        "subject": {"reference": "Patient/pt-dementia-001"},
        "serviceProvider": {"reference": "Organization/org-dementia-hospice"},
        "period": {"start": "2025-10-05T08:00:00+08:00", "end": "2025-10-15T10:00:00+08:00"}
      }
    },
    {
      "request": {"method": "PUT", "url": "Condition/cond-dementia-001"},
      "resource": {
        "resourceType": "Condition",
        "id": "cond-dementia-001",
        "clinicalStatus": {"coding": [{"system": "http://terminology.hl7.org/CodeSystem/condition-clinical", "code": "active"}]},
        "verificationStatus": {"coding": [{"system": "http://terminology.hl7.org/CodeSystem/condition-ver-status", "code": "confirmed"}]},
        "code": {"coding": [{"system": "http://hl7.org/fhir/sid/icd-10-cm", "code": "F01.50", "display": "血管性失智症"}]},
        "subject": {"reference": "Patient/pt-dementia-001"},
        "encounter": {"reference": "Encounter/enc-dementia-001"}
      }
    },
    {
      "request": {"method": "PUT", "url": "Procedure/proc-hospice-001"},
      "resource": {
        "resourceType": "Procedure",
        "id": "proc-hospice-001",
        "status": "completed",
        "code": {"coding": [{"code": "05601K", "display": "安寧居家療護"}]},
        "subject": {"reference": "Patient/pt-dementia-001"},
        "encounter": {"reference": "Encounter/enc-dementia-001"},
        "performedPeriod": {"start": "2025-10-06T09:00:00+08:00", "end": "2025-10-06T10:00:00+08:00"}
      }
    },
    {
      "request": {"method": "PUT", "url": "Encounter/enc-dementia-002"},
      "resource": {
        "resourceType": "Encounter",
        "id": "enc-dementia-002",
        "status": "finished",
        "class": {"system": "http://terminology.hl7.org/CodeSystem/v3-ActCode", "code": "IMP"},
        "subject": {"reference": "Patient/pt-dementia-002"},
        "serviceProvider": {"reference": "Organization/org-dementia-hospice"},
        "period": {"start": "2025-10-12T09:00:00+08:00", "end": "2025-10-25T14:00:00+08:00"}
      }
    },
    {
      "request": {"method": "PUT", "url": "Condition/cond-dementia-002"},
      "resource": {
        "resourceType": "Condition",
        "id": "cond-dementia-002",
        "clinicalStatus": {"coding": [{"system": "http://terminology.hl7.org/CodeSystem/condition-clinical", "code": "active"}]},
        "verificationStatus": {"coding": [{"system": "http://terminology.hl7.org/CodeSystem/condition-ver-status", "code": "confirmed"}]},
        "code": {"coding": [{"system": "http://hl7.org/fhir/sid/icd-10-cm", "code": "G30.9", "display": "阿茲海默症"}]},
        "subject": {"reference": "Patient/pt-dementia-002"},
        "encounter": {"reference": "Encounter/enc-dementia-002"}
      }
    },
    {
      "request": {"method": "PUT", "url": "Procedure/proc-hospice-002"},
      "resource": {
        "resourceType": "Procedure",
        "id": "proc-hospice-002",
        "status": "completed",
        "code": {"coding": [{"code": "05602A", "display": "安寧住院療護"}]},
        "subject": {"reference": "Patient/pt-dementia-002"},
        "encounter": {"reference": "Encounter/enc-dementia-002"},
        "performedPeriod": {"start": "2025-10-13T10:00:00+08:00", "end": "2025-10-13T11:00:00+08:00"}
      }
    },
    {
      "request": {"method": "PUT", "url": "Encounter/enc-dementia-003"},
      "resource": {
        "resourceType": "Encounter",
        "id": "enc-dementia-003",
        "status": "finished",
        "class": {"system": "http://terminology.hl7.org/CodeSystem/v3-ActCode", "code": "AMB"},
        "subject": {"reference": "Patient/pt-dementia-003"},
        "serviceProvider": {"reference": "Organization/org-dementia-hospice"},
        "period": {"start": "2025-11-08T10:00:00+08:00", "end": "2025-11-08T11:00:00+08:00"}
      }
    },
    {
      "request": {"method": "PUT", "url": "Condition/cond-dementia-003"},
      "resource": {
        "resourceType": "Condition",
        "id": "cond-dementia-003",
        "clinicalStatus": {"coding": [{"system": "http://terminology.hl7.org/CodeSystem/condition-clinical", "code": "active"}]},
        "verificationStatus": {"coding": [{"system": "http://terminology.hl7.org/CodeSystem/condition-ver-status", "code": "confirmed"}]},
        "code": {"coding": [{"system": "http://hl7.org/fhir/sid/icd-10-cm", "code": "F02.80", "display": "其他疾病引起的失智症"}]},
        "subject": {"reference": "Patient/pt-dementia-003"},
        "encounter": {"reference": "Encounter/enc-dementia-003"}
      }
    },
    {
      "request": {"method": "PUT", "url": "Encounter/enc-dementia-004"},
      "resource": {
        "resourceType": "Encounter",
        "id": "enc-dementia-004",
        "status": "finished",
        "class": {"system": "http://terminology.hl7.org/CodeSystem/v3-ActCode", "code": "IMP"},
        "subject": {"reference": "Patient/pt-dementia-004"},
        "serviceProvider": {"reference": "Organization/org-dementia-hospice"},
        "period": {"start": "2025-11-15T08:00:00+08:00", "end": "2025-11-28T15:00:00+08:00"}
      }
    },
    {
      "request": {"method": "PUT", "url": "Condition/cond-dementia-004"},
      "resource": {
        "resourceType": "Condition",
        "id": "cond-dementia-004",
        "clinicalStatus": {"coding": [{"system": "http://terminology.hl7.org/CodeSystem/condition-clinical", "code": "active"}]},
        "verificationStatus": {"coding": [{"system": "http://terminology.hl7.org/CodeSystem/condition-ver-status", "code": "confirmed"}]},
        "code": {"coding": [{"system": "http://hl7.org/fhir/sid/icd-10-cm", "code": "F03.90", "display": "未明示之失智症"}]},
        "subject": {"reference": "Patient/pt-dementia-004"},
        "encounter": {"reference": "Encounter/enc-dementia-004"}
      }
    },
    {
      "request": {"method": "PUT", "url": "Encounter/enc-dementia-005"},
      "resource": {
        "resourceType": "Encounter",
        "id": "enc-dementia-005",
        "status": "finished",
        "class": {"system": "http://terminology.hl7.org/CodeSystem/v3-ActCode", "code": "AMB"},
        "subject": {"reference": "Patient/pt-dementia-005"},
        "serviceProvider": {"reference": "Organization/org-dementia-hospice"},
        "period": {"start": "2025-12-03T09:00:00+08:00", "end": "2025-12-03T10:00:00+08:00"}
      }
    },
    {
      "request": {"method": "PUT", "url": "Condition/cond-dementia-005"},
      "resource": {
        "resourceType": "Condition",
        "id": "cond-dementia-005",
        "clinicalStatus": {"coding": [{"system": "http://terminology.hl7.org/CodeSystem/condition-clinical", "code": "active"}]},
        "verificationStatus": {"coding": [{"system": "http://terminology.hl7.org/CodeSystem/condition-ver-status", "code": "confirmed"}]},
        "code": {"coding": [{"system": "http://hl7.org/fhir/sid/icd-10-cm", "code": "G31.09", "display": "神經系統退化性疾病"}]},
        "subject": {"reference": "Patient/pt-dementia-005"},
        "encounter": {"reference": "Encounter/enc-dementia-005"}
      }
    },
    {
      "request": {"method": "PUT", "url": "Procedure/proc-hospice-005"},
      "resource": {
        "resourceType": "Procedure",
        "id": "proc-hospice-005",
        "status": "completed",
        "code": {"coding": [{"code": "05603B", "display": "安寧共同照護"}]},
        "subject": {"reference": "Patient/pt-dementia-005"},
        "encounter": {"reference": "Encounter/enc-dementia-005"},
        "performedPeriod": {"start": "2025-12-03T09:30:00+08:00", "end": "2025-12-03T10:00:00+08:00"}
      }
    }
  ]
}
