{
  "resourceType": "Bundle",
  "type": "transaction",
  "entry": [
    {
      "fullUrl": "urn:uuid:patient-1",
      "resource": {
        "resourceType": "Patient",
        "id": "PROSTATE-P1-2025Q4",
        "gender": "male",
        "birthDate": "1960-05-20",
        "name": [
          {
            "text": "王大明",
            "family": "Wang",
            "given": ["Daming"]
          }
        ]
      },
      "request": {
        "method": "PUT",
        "url": "Patient/PROSTATE-P1-2025Q4"
      }
    },
    {
      "fullUrl": "urn:uuid:patient-2",
      "resource": {
        "resourceType": "Patient",
        "id": "PROSTATE-P2-2025Q4",
        "gender": "male",
        "birthDate": "1955-08-12",
        "name": [
          {
            "text": "李建成",
            "family": "Li",
            "given": ["Jiancheng"]
          }
        ]
      },
      "request": {
        "method": "PUT",
        "url": "Patient/PROSTATE-P2-2025Q4"
      }
    },
    {
      "fullUrl": "urn:uuid:patient-3",
      "resource": {
        "resourceType": "Patient",
        "id": "PROSTATE-P3-2025Q4",
        "gender": "male",
        "birthDate": "1958-11-05",
        "name": [
          {
            "text": "張偉強",
            "family": "Zhang",
            "given": ["Weiqiang"]
          }
        ]
      },
      "request": {
        "method": "PUT",
        "url": "Patient/PROSTATE-P3-2025Q4"
      }
    },
    {
      "fullUrl": "urn:uuid:patient-4",
      "resource": {
        "resourceType": "Patient",
        "id": "PROSTATE-P4-2025Q4",
        "gender": "male",
        "birthDate": "1962-03-18",
        "name": [
          {
            "text": "陳文雄",
            "family": "Chen",
            "given": ["Wenxiong"]
          }
        ]
      },
      "request": {
        "method": "PUT",
        "url": "Patient/PROSTATE-P4-2025Q4"
      }
    },
    {
      "fullUrl": "urn:uuid:encounter-1",
      "resource": {
        "resourceType": "Encounter",
        "id": "PROSTATE-E1-2025Q4",
        "status": "finished",
        "class": {
          "system": "http://terminology.hl7.org/CodeSystem/v3-ActCode",
          "code": "AMB",
          "display": "ambulatory"
        },
        "subject": {
          "reference": "Patient/PROSTATE-P1-2025Q4"
        },
        "period": {
          "start": "2025-10-01T09:00:00+08:00",
          "end": "2025-10-01T09:30:00+08:00"
        }
      },
      "request": {
        "method": "PUT",
        "url": "Encounter/PROSTATE-E1-2025Q4"
      }
    },
    {
      "fullUrl": "urn:uuid:medication-1",
      "resource": {
        "resourceType": "MedicationRequest",
        "id": "PROSTATE-M1-2025Q4",
        "status": "completed",
        "intent": "order",
        "medicationCodeableConcept": {
          "coding": [
            {
              "system": "http://www.whocc.no/atc",
              "code": "G04CA02",
              "display": "Tamsulosin"
            }
          ],
          "text": "悍路通 Tamsulosin 0.2mg"
        },
        "subject": {
          "reference": "Patient/PROSTATE-P1-2025Q4"
        },
        "encounter": {
          "reference": "Encounter/PROSTATE-E1-2025Q4"
        },
        "authoredOn": "2025-10-01T09:00:00+08:00",
        "dosageInstruction": [
          {
            "timing": {
              "repeat": {
                "boundsPeriod": {
                  "start": "2025-10-01",
                  "end": "2025-10-28"
                },
                "frequency": 1,
                "period": 1,
                "periodUnit": "d"
              }
            },
            "doseAndRate": [
              {
                "doseQuantity": {
                  "value": 1,
                  "unit": "capsule"
                }
              }
            ]
          }
        ],
        "dispenseRequest": {
          "validityPeriod": {
            "start": "2025-10-01",
            "end": "2025-10-28"
          },
          "quantity": {
            "value": 28,
            "unit": "capsule"
          },
          "expectedSupplyDuration": {
            "value": 28,
            "unit": "days",
            "system": "http://unitsofmeasure.org",
            "code": "d"
          }
        }
      },
      "request": {
        "method": "PUT",
        "url": "MedicationRequest/PROSTATE-M1-2025Q4"
      }
    },
    {
      "fullUrl": "urn:uuid:encounter-2",
      "resource": {
        "resourceType": "Encounter",
        "id": "PROSTATE-E2-2025Q4",
        "status": "finished",
        "class": {
          "system": "http://terminology.hl7.org/CodeSystem/v3-ActCode",
          "code": "AMB",
          "display": "ambulatory"
        },
        "subject": {
          "reference": "Patient/PROSTATE-P1-2025Q4"
        },
        "period": {
          "start": "2025-10-20T10:00:00+08:00",
          "end": "2025-10-20T10:30:00+08:00"
        }
      },
      "request": {
        "method": "PUT",
        "url": "Encounter/PROSTATE-E2-2025Q4"
      }
    },
    {
      "fullUrl": "urn:uuid:medication-2",
      "resource": {
        "resourceType": "MedicationRequest",
        "id": "PROSTATE-M2-2025Q4",
        "status": "completed",
        "intent": "order",
        "medicationCodeableConcept": {
          "coding": [
            {
              "system": "http://www.whocc.no/atc",
              "code": "G04CA02",
              "display": "Tamsulosin"
            }
          ],
          "text": "悍路通 Tamsulosin 0.2mg"
        },
        "subject": {
          "reference": "Patient/PROSTATE-P1-2025Q4"
        },
        "encounter": {
          "reference": "Encounter/PROSTATE-E2-2025Q4"
        },
        "authoredOn": "2025-10-20T10:00:00+08:00",
        "dosageInstruction": [
          {
            "timing": {
              "repeat": {
                "boundsPeriod": {
                  "start": "2025-10-20",
                  "end": "2025-11-16"
                },
                "frequency": 1,
                "period": 1,
                "periodUnit": "d"
              }
            },
            "doseAndRate": [
              {
                "doseQuantity": {
                  "value": 1,
                  "unit": "capsule"
                }
              }
            ]
          }
        ],
        "dispenseRequest": {
          "validityPeriod": {
            "start": "2025-10-20",
            "end": "2025-11-16"
          },
          "quantity": {
            "value": 28,
            "unit": "capsule"
          },
          "expectedSupplyDuration": {
            "value": 28,
            "unit": "days",
            "system": "http://unitsofmeasure.org",
            "code": "d"
          }
        }
      },
      "request": {
        "method": "PUT",
        "url": "MedicationRequest/PROSTATE-M2-2025Q4"
      }
    },
    {
      "fullUrl": "urn:uuid:encounter-3",
      "resource": {
        "resourceType": "Encounter",
        "id": "PROSTATE-E3-2025Q4",
        "status": "finished",
        "class": {
          "system": "http://terminology.hl7.org/CodeSystem/v3-ActCode",
          "code": "AMB",
          "display": "ambulatory"
        },
        "subject": {
          "reference": "Patient/PROSTATE-P2-2025Q4"
        },
        "period": {
          "start": "2025-10-05T11:00:00+08:00",
          "end": "2025-10-05T11:30:00+08:00"
        }
      },
      "request": {
        "method": "PUT",
        "url": "Encounter/PROSTATE-E3-2025Q4"
      }
    },
    {
      "fullUrl": "urn:uuid:medication-3",
      "resource": {
        "resourceType": "MedicationRequest",
        "id": "PROSTATE-M3-2025Q4",
        "status": "completed",
        "intent": "order",
        "medicationCodeableConcept": {
          "coding": [
            {
              "system": "http://www.whocc.no/atc",
              "code": "G04CA04",
              "display": "Doxazosin"
            }
          ],
          "text": "可迅 Doxazosin 4mg"
        },
        "subject": {
          "reference": "Patient/PROSTATE-P2-2025Q4"
        },
        "encounter": {
          "reference": "Encounter/PROSTATE-E3-2025Q4"
        },
        "authoredOn": "2025-10-05T11:00:00+08:00",
        "dosageInstruction": [
          {
            "timing": {
              "repeat": {
                "boundsPeriod": {
                  "start": "2025-10-05",
                  "end": "2025-11-01"
                },
                "frequency": 1,
                "period": 1,
                "periodUnit": "d"
              }
            },
            "doseAndRate": [
              {
                "doseQuantity": {
                  "value": 1,
                  "unit": "tablet"
                }
              }
            ]
          }
        ],
        "dispenseRequest": {
          "validityPeriod": {
            "start": "2025-10-05",
            "end": "2025-11-01"
          },
          "quantity": {
            "value": 28,
            "unit": "tablet"
          },
          "expectedSupplyDuration": {
            "value": 28,
            "unit": "days",
            "system": "http://unitsofmeasure.org",
            "code": "d"
          }
        }
      },
      "request": {
        "method": "PUT",
        "url": "MedicationRequest/PROSTATE-M3-2025Q4"
      }
    },
    {
      "fullUrl": "urn:uuid:encounter-4",
      "resource": {
        "resourceType": "Encounter",
        "id": "PROSTATE-E4-2025Q4",
        "status": "finished",
        "class": {
          "system": "http://terminology.hl7.org/CodeSystem/v3-ActCode",
          "code": "AMB",
          "display": "ambulatory"
        },
        "subject": {
          "reference": "Patient/PROSTATE-P2-2025Q4"
        },
        "period": {
          "start": "2025-10-25T14:00:00+08:00",
          "end": "2025-10-25T14:30:00+08:00"
        }
      },
      "request": {
        "method": "PUT",
        "url": "Encounter/PROSTATE-E4-2025Q4"
      }
    },
    {
      "fullUrl": "urn:uuid:medication-4",
      "resource": {
        "resourceType": "MedicationRequest",
        "id": "PROSTATE-M4-2025Q4",
        "status": "completed",
        "intent": "order",
        "medicationCodeableConcept": {
          "coding": [
            {
              "system": "http://www.whocc.no/atc",
              "code": "G04CA04",
              "display": "Doxazosin"
            }
          ],
          "text": "可迅 Doxazosin 4mg"
        },
        "subject": {
          "reference": "Patient/PROSTATE-P2-2025Q4"
        },
        "encounter": {
          "reference": "Encounter/PROSTATE-E4-2025Q4"
        },
        "authoredOn": "2025-10-25T14:00:00+08:00",
        "dosageInstruction": [
          {
            "timing": {
              "repeat": {
                "boundsPeriod": {
                  "start": "2025-10-25",
                  "end": "2025-11-21"
                },
                "frequency": 1,
                "period": 1,
                "periodUnit": "d"
              }
            },
            "doseAndRate": [
              {
                "doseQuantity": {
                  "value": 1,
                  "unit": "tablet"
                }
              }
            ]
          }
        ],
        "dispenseRequest": {
          "validityPeriod": {
            "start": "2025-10-25",
            "end": "2025-11-21"
          },
          "quantity": {
            "value": 28,
            "unit": "tablet"
          },
          "expectedSupplyDuration": {
            "value": 28,
            "unit": "days",
            "system": "http://unitsofmeasure.org",
            "code": "d"
          }
        }
      },
      "request": {
        "method": "PUT",
        "url": "MedicationRequest/PROSTATE-M4-2025Q4"
      }
    },
    {
      "fullUrl": "urn:uuid:encounter-5",
      "resource": {
        "resourceType": "Encounter",
        "id": "PROSTATE-E5-2025Q4",
        "status": "finished",
        "class": {
          "system": "http://terminology.hl7.org/CodeSystem/v3-ActCode",
          "code": "AMB",
          "display": "ambulatory"
        },
        "subject": {
          "reference": "Patient/PROSTATE-P3-2025Q4"
        },
        "period": {
          "start": "2025-10-10T09:00:00+08:00",
          "end": "2025-10-10T09:30:00+08:00"
        }
      },
      "request": {
        "method": "PUT",
        "url": "Encounter/PROSTATE-E5-2025Q4"
      }
    },
    {
      "fullUrl": "urn:uuid:medication-5",
      "resource": {
        "resourceType": "MedicationRequest",
        "id": "PROSTATE-M5-2025Q4",
        "status": "completed",
        "intent": "order",
        "medicationCodeableConcept": {
          "coding": [
            {
              "system": "http://www.whocc.no/atc",
              "code": "G04CB01",
              "display": "Finasteride"
            }
          ],
          "text": "柔沛 Finasteride 5mg"
        },
        "subject": {
          "reference": "Patient/PROSTATE-P3-2025Q4"
        },
        "encounter": {
          "reference": "Encounter/PROSTATE-E5-2025Q4"
        },
        "authoredOn": "2025-10-10T09:00:00+08:00",
        "dosageInstruction": [
          {
            "timing": {
              "repeat": {
                "boundsPeriod": {
                  "start": "2025-10-10",
                  "end": "2025-11-06"
                },
                "frequency": 1,
                "period": 1,
                "periodUnit": "d"
              }
            },
            "doseAndRate": [
              {
                "doseQuantity": {
                  "value": 1,
                  "unit": "tablet"
                }
              }
            ]
          }
        ],
        "dispenseRequest": {
          "validityPeriod": {
            "start": "2025-10-10",
            "end": "2025-11-06"
          },
          "quantity": {
            "value": 28,
            "unit": "tablet"
          },
          "expectedSupplyDuration": {
            "value": 28,
            "unit": "days",
            "system": "http://unitsofmeasure.org",
            "code": "d"
          }
        }
      },
      "request": {
        "method": "PUT",
        "url": "MedicationRequest/PROSTATE-M5-2025Q4"
      }
    },
    {
      "fullUrl": "urn:uuid:encounter-6",
      "resource": {
        "resourceType": "Encounter",
        "id": "PROSTATE-E6-2025Q4",
        "status": "finished",
        "class": {
          "system": "http://terminology.hl7.org/CodeSystem/v3-ActCode",
          "code": "AMB",
          "display": "ambulatory"
        },
        "subject": {
          "reference": "Patient/PROSTATE-P3-2025Q4"
        },
        "period": {
          "start": "2025-10-28T10:00:00+08:00",
          "end": "2025-10-28T10:30:00+08:00"
        }
      },
      "request": {
        "method": "PUT",
        "url": "Encounter/PROSTATE-E6-2025Q4"
      }
    },
    {
      "fullUrl": "urn:uuid:medication-6",
      "resource": {
        "resourceType": "MedicationRequest",
        "id": "PROSTATE-M6-2025Q4",
        "status": "completed",
        "intent": "order",
        "medicationCodeableConcept": {
          "coding": [
            {
              "system": "http://www.whocc.no/atc",
              "code": "G04CB02",
              "display": "Dutasteride"
            }
          ],
          "text": "適尿通 Dutasteride 0.5mg"
        },
        "subject": {
          "reference": "Patient/PROSTATE-P3-2025Q4"
        },
        "encounter": {
          "reference": "Encounter/PROSTATE-E6-2025Q4"
        },
        "authoredOn": "2025-10-28T10:00:00+08:00",
        "dosageInstruction": [
          {
            "timing": {
              "repeat": {
                "boundsPeriod": {
                  "start": "2025-10-28",
                  "end": "2025-11-24"
                },
                "frequency": 1,
                "period": 1,
                "periodUnit": "d"
              }
            },
            "doseAndRate": [
              {
                "doseQuantity": {
                  "value": 1,
                  "unit": "capsule"
                }
              }
            ]
          }
        ],
        "dispenseRequest": {
          "validityPeriod": {
            "start": "2025-10-28",
            "end": "2025-11-24"
          },
          "quantity": {
            "value": 28,
            "unit": "capsule"
          },
          "expectedSupplyDuration": {
            "value": 28,
            "unit": "days",
            "system": "http://unitsofmeasure.org",
            "code": "d"
          }
        }
      },
      "request": {
        "method": "PUT",
        "url": "MedicationRequest/PROSTATE-M6-2025Q4"
      }
    },
    {
      "fullUrl": "urn:uuid:encounter-7",
      "resource": {
        "resourceType": "Encounter",
        "id": "PROSTATE-E7-2025Q4",
        "status": "finished",
        "class": {
          "system": "http://terminology.hl7.org/CodeSystem/v3-ActCode",
          "code": "AMB",
          "display": "ambulatory"
        },
        "subject": {
          "reference": "Patient/PROSTATE-P4-2025Q4"
        },
        "period": {
          "start": "2025-10-01T14:00:00+08:00",
          "end": "2025-10-01T14:30:00+08:00"
        }
      },
      "request": {
        "method": "PUT",
        "url": "Encounter/PROSTATE-E7-2025Q4"
      }
    },
    {
      "fullUrl": "urn:uuid:medication-7",
      "resource": {
        "resourceType": "MedicationRequest",
        "id": "PROSTATE-M7-2025Q4",
        "status": "completed",
        "intent": "order",
        "medicationCodeableConcept": {
          "coding": [
            {
              "system": "http://www.whocc.no/atc",
              "code": "G04CA03",
              "display": "Terazosin"
            }
          ],
          "text": "定脈平 Terazosin 2mg"
        },
        "subject": {
          "reference": "Patient/PROSTATE-P4-2025Q4"
        },
        "encounter": {
          "reference": "Encounter/PROSTATE-E7-2025Q4"
        },
        "authoredOn": "2025-10-01T14:00:00+08:00",
        "dosageInstruction": [
          {
            "timing": {
              "repeat": {
                "boundsPeriod": {
                  "start": "2025-10-01",
                  "end": "2025-10-28"
                },
                "frequency": 1,
                "period": 1,
                "periodUnit": "d"
              }
            },
            "doseAndRate": [
              {
                "doseQuantity": {
                  "value": 1,
                  "unit": "tablet"
                }
              }
            ]
          }
        ],
        "dispenseRequest": {
          "validityPeriod": {
            "start": "2025-10-01",
            "end": "2025-10-28"
          },
          "quantity": {
            "value": 28,
            "unit": "tablet"
          },
          "expectedSupplyDuration": {
            "value": 28,
            "unit": "days",
            "system": "http://unitsofmeasure.org",
            "code": "d"
          }
        }
      },
      "request": {
        "method": "PUT",
        "url": "MedicationRequest/PROSTATE-M7-2025Q4"
      }
    },
    {
      "fullUrl": "urn:uuid:encounter-8",
      "resource": {
        "resourceType": "Encounter",
        "id": "PROSTATE-E8-2025Q4",
        "status": "finished",
        "class": {
          "system": "http://terminology.hl7.org/CodeSystem/v3-ActCode",
          "code": "AMB",
          "display": "ambulatory"
        },
        "subject": {
          "reference": "Patient/PROSTATE-P4-2025Q4"
        },
        "period": {
          "start": "2025-10-29T15:00:00+08:00",
          "end": "2025-10-29T15:30:00+08:00"
        }
      },
      "request": {
        "method": "PUT",
        "url": "Encounter/PROSTATE-E8-2025Q4"
      }
    },
    {
      "fullUrl": "urn:uuid:medication-8",
      "resource": {
        "resourceType": "MedicationRequest",
        "id": "PROSTATE-M8-2025Q4",
        "status": "completed",
        "intent": "order",
        "medicationCodeableConcept": {
          "coding": [
            {
              "system": "http://www.whocc.no/atc",
              "code": "G04CA03",
              "display": "Terazosin"
            }
          ],
          "text": "定脈平 Terazosin 2mg"
        },
        "subject": {
          "reference": "Patient/PROSTATE-P4-2025Q4"
        },
        "encounter": {
          "reference": "Encounter/PROSTATE-E8-2025Q4"
        },
        "authoredOn": "2025-10-29T15:00:00+08:00",
        "dosageInstruction": [
          {
            "timing": {
              "repeat": {
                "boundsPeriod": {
                  "start": "2025-10-29",
                  "end": "2025-11-25"
                },
                "frequency": 1,
                "period": 1,
                "periodUnit": "d"
              }
            },
            "doseAndRate": [
              {
                "doseQuantity": {
                  "value": 1,
                  "unit": "tablet"
                }
              }
            ]
          }
        ],
        "dispenseRequest": {
          "validityPeriod": {
            "start": "2025-10-29",
            "end": "2025-11-25"
          },
          "quantity": {
            "value": 28,
            "unit": "tablet"
          },
          "expectedSupplyDuration": {
            "value": 28,
            "unit": "days",
            "system": "http://unitsofmeasure.org",
            "code": "d"
          }
        }
      },
      "request": {
        "method": "PUT",
        "url": "MedicationRequest/PROSTATE-M8-2025Q4"
      }
    }
  ]
}
