{
  "resourceType": "Bundle",
  "type": "transaction",
  "entry": [
    {
      "request": {
        "method": "PUT",
        "url": "Organization/org-hospital-cross-antipsych-c"
      },
      "resource": {
        "resourceType": "Organization",
        "id": "org-hospital-cross-antipsych-c",
        "name": "跨院抗思覺失調_丙醫院",
        "type": [
          {
            "coding": [
              {
                "system": "http://terminology.hl7.org/CodeSystem/organization-type",
                "code": "prov",
                "display": "Healthcare Provider"
              }
            ]
          }
        ]
      }
    },
    {
      "request": {
        "method": "PUT",
        "url": "Organization/org-hospital-cross-antipsych-d"
      },
      "resource": {
        "resourceType": "Organization",
        "id": "org-hospital-cross-antipsych-d",
        "name": "跨院抗思覺失調_丁醫院",
        "type": [
          {
            "coding": [
              {
                "system": "http://terminology.hl7.org/CodeSystem/organization-type",
                "code": "prov",
                "display": "Healthcare Provider"
              }
            ]
          }
        ]
      }
    },
    {
      "request": {
        "method": "PUT",
        "url": "Patient/patient-antipsych-cross-001"
      },
      "resource": {
        "resourceType": "Patient",
        "id": "patient-antipsych-cross-001",
        "identifier": [
          {
            "system": "http://www.moi.gov.tw",
            "value": "ANTIPSYCH-CROSS-001"
          }
        ],
        "name": [
          {
            "text": "跨院抗思覺失調001",
            "family": "跨院",
            "given": ["抗思覺001"]
          }
        ],
        "gender": "male",
        "birthDate": "1976-08-25"
      }
    },
    {
      "request": {
        "method": "PUT",
        "url": "Patient/patient-antipsych-cross-002"
      },
      "resource": {
        "resourceType": "Patient",
        "id": "patient-antipsych-cross-002",
        "identifier": [
          {
            "system": "http://www.moi.gov.tw",
            "value": "ANTIPSYCH-CROSS-002"
          }
        ],
        "name": [
          {
            "text": "跨院抗思覺失調002",
            "family": "跨院",
            "given": ["抗思覺002"]
          }
        ],
        "gender": "female",
        "birthDate": "1982-03-18"
      }
    },
    {
      "request": {
        "method": "PUT",
        "url": "Patient/patient-antipsych-cross-003"
      },
      "resource": {
        "resourceType": "Patient",
        "id": "patient-antipsych-cross-003",
        "identifier": [
          {
            "system": "http://www.moi.gov.tw",
            "value": "ANTIPSYCH-CROSS-003"
          }
        ],
        "name": [
          {
            "text": "跨院抗思覺失調003",
            "family": "跨院",
            "given": ["抗思覺003"]
          }
        ],
        "gender": "male",
        "birthDate": "1979-11-05"
      }
    },
    {
      "request": {
        "method": "PUT",
        "url": "Encounter/encounter-antipsych-cross-001-c"
      },
      "resource": {
        "resourceType": "Encounter",
        "id": "encounter-antipsych-cross-001-c",
        "status": "finished",
        "class": {
          "system": "http://terminology.hl7.org/CodeSystem/v3-ActCode",
          "code": "AMB",
          "display": "ambulatory"
        },
        "subject": {
          "reference": "Patient/patient-antipsych-cross-001"
        },
        "serviceProvider": {
          "reference": "Organization/org-hospital-cross-antipsych-c"
        },
        "period": {
          "start": "2025-10-02T10:00:00+08:00",
          "end": "2025-10-02T10:30:00+08:00"
        }
      }
    },
    {
      "request": {
        "method": "PUT",
        "url": "MedicationRequest/medreq-antipsych-cross-001-c"
      },
      "resource": {
        "resourceType": "MedicationRequest",
        "id": "medreq-antipsych-cross-001-c",
        "status": "completed",
        "intent": "order",
        "medicationCodeableConcept": {
          "coding": [
            {
              "system": "http://www.whocc.no/atc",
              "code": "N05AH04",
              "display": "Quetiapine"
            }
          ],
          "text": "Quetiapine 200mg"
        },
        "subject": {
          "reference": "Patient/patient-antipsych-cross-001"
        },
        "encounter": {
          "reference": "Encounter/encounter-antipsych-cross-001-c"
        },
        "authoredOn": "2025-10-02T10:00:00+08:00",
        "dispenseRequest": {
          "validityPeriod": {
            "start": "2025-10-02",
            "end": "2025-10-30"
          },
          "quantity": {
            "value": 56,
            "unit": "tablet"
          }
        }
      }
    },
    {
      "request": {
        "method": "PUT",
        "url": "Encounter/encounter-antipsych-cross-001-d"
      },
      "resource": {
        "resourceType": "Encounter",
        "id": "encounter-antipsych-cross-001-d",
        "status": "finished",
        "class": {
          "system": "http://terminology.hl7.org/CodeSystem/v3-ActCode",
          "code": "AMB",
          "display": "ambulatory"
        },
        "subject": {
          "reference": "Patient/patient-antipsych-cross-001"
        },
        "serviceProvider": {
          "reference": "Organization/org-hospital-cross-antipsych-d"
        },
        "period": {
          "start": "2025-10-10T14:00:00+08:00",
          "end": "2025-10-10T14:30:00+08:00"
        }
      }
    },
    {
      "request": {
        "method": "PUT",
        "url": "MedicationRequest/medreq-antipsych-cross-001-d"
      },
      "resource": {
        "resourceType": "MedicationRequest",
        "id": "medreq-antipsych-cross-001-d",
        "status": "completed",
        "intent": "order",
        "medicationCodeableConcept": {
          "coding": [
            {
              "system": "http://www.whocc.no/atc",
              "code": "N05AX08",
              "display": "Risperidone"
            }
          ],
          "text": "Risperidone 3mg"
        },
        "subject": {
          "reference": "Patient/patient-antipsych-cross-001"
        },
        "encounter": {
          "reference": "Encounter/encounter-antipsych-cross-001-d"
        },
        "authoredOn": "2025-10-10T14:00:00+08:00",
        "dispenseRequest": {
          "validityPeriod": {
            "start": "2025-10-10",
            "end": "2025-11-07"
          },
          "quantity": {
            "value": 56,
            "unit": "tablet"
          }
        }
      }
    },
    {
      "request": {
        "method": "PUT",
        "url": "Encounter/encounter-antipsych-cross-002-c"
      },
      "resource": {
        "resourceType": "Encounter",
        "id": "encounter-antipsych-cross-002-c",
        "status": "finished",
        "class": {
          "system": "http://terminology.hl7.org/CodeSystem/v3-ActCode",
          "code": "AMB",
          "display": "ambulatory"
        },
        "subject": {
          "reference": "Patient/patient-antipsych-cross-002"
        },
        "serviceProvider": {
          "reference": "Organization/org-hospital-cross-antipsych-c"
        },
        "period": {
          "start": "2025-11-05T09:00:00+08:00",
          "end": "2025-11-05T09:30:00+08:00"
        }
      }
    },
    {
      "request": {
        "method": "PUT",
        "url": "MedicationRequest/medreq-antipsych-cross-002-c"
      },
      "resource": {
        "resourceType": "MedicationRequest",
        "id": "medreq-antipsych-cross-002-c",
        "status": "completed",
        "intent": "order",
        "medicationCodeableConcept": {
          "coding": [
            {
              "system": "http://www.whocc.no/atc",
              "code": "N05AH03",
              "display": "Olanzapine"
            }
          ],
          "text": "Olanzapine 10mg"
        },
        "subject": {
          "reference": "Patient/patient-antipsych-cross-002"
        },
        "encounter": {
          "reference": "Encounter/encounter-antipsych-cross-002-c"
        },
        "authoredOn": "2025-11-05T09:00:00+08:00",
        "dispenseRequest": {
          "validityPeriod": {
            "start": "2025-11-05",
            "end": "2025-12-03"
          },
          "quantity": {
            "value": 28,
            "unit": "tablet"
          }
        }
      }
    },
    {
      "request": {
        "method": "PUT",
        "url": "Encounter/encounter-antipsych-cross-002-d"
      },
      "resource": {
        "resourceType": "Encounter",
        "id": "encounter-antipsych-cross-002-d",
        "status": "finished",
        "class": {
          "system": "http://terminology.hl7.org/CodeSystem/v3-ActCode",
          "code": "AMB",
          "display": "ambulatory"
        },
        "subject": {
          "reference": "Patient/patient-antipsych-cross-002"
        },
        "serviceProvider": {
          "reference": "Organization/org-hospital-cross-antipsych-d"
        },
        "period": {
          "start": "2025-11-12T15:00:00+08:00",
          "end": "2025-11-12T15:30:00+08:00"
        }
      }
    },
    {
      "request": {
        "method": "PUT",
        "url": "MedicationRequest/medreq-antipsych-cross-002-d"
      },
      "resource": {
        "resourceType": "MedicationRequest",
        "id": "medreq-antipsych-cross-002-d",
        "status": "completed",
        "intent": "order",
        "medicationCodeableConcept": {
          "coding": [
            {
              "system": "http://www.whocc.no/atc",
              "code": "N05AX12",
              "display": "Aripiprazole"
            }
          ],
          "text": "Aripiprazole 15mg"
        },
        "subject": {
          "reference": "Patient/patient-antipsych-cross-002"
        },
        "encounter": {
          "reference": "Encounter/encounter-antipsych-cross-002-d"
        },
        "authoredOn": "2025-11-12T15:00:00+08:00",
        "dispenseRequest": {
          "validityPeriod": {
            "start": "2025-11-12",
            "end": "2025-12-10"
          },
          "quantity": {
            "value": 28,
            "unit": "tablet"
          }
        }
      }
    },
    {
      "request": {
        "method": "PUT",
        "url": "Encounter/encounter-antipsych-cross-003-c"
      },
      "resource": {
        "resourceType": "Encounter",
        "id": "encounter-antipsych-cross-003-c",
        "status": "finished",
        "class": {
          "system": "http://terminology.hl7.org/CodeSystem/v3-ActCode",
          "code": "AMB",
          "display": "ambulatory"
        },
        "subject": {
          "reference": "Patient/patient-antipsych-cross-003"
        },
        "serviceProvider": {
          "reference": "Organization/org-hospital-cross-antipsych-c"
        },
        "period": {
          "start": "2025-12-01T10:00:00+08:00",
          "end": "2025-12-01T10:30:00+08:00"
        }
      }
    },
    {
      "request": {
        "method": "PUT",
        "url": "MedicationRequest/medreq-antipsych-cross-003-c"
      },
      "resource": {
        "resourceType": "MedicationRequest",
        "id": "medreq-antipsych-cross-003-c",
        "status": "completed",
        "intent": "order",
        "medicationCodeableConcept": {
          "coding": [
            {
              "system": "http://www.whocc.no/atc",
              "code": "N05AH02",
              "display": "Clozapine"
            }
          ],
          "text": "Clozapine 100mg"
        },
        "subject": {
          "reference": "Patient/patient-antipsych-cross-003"
        },
        "encounter": {
          "reference": "Encounter/encounter-antipsych-cross-003-c"
        },
        "authoredOn": "2025-12-01T10:00:00+08:00",
        "dispenseRequest": {
          "validityPeriod": {
            "start": "2025-12-01",
            "end": "2025-12-29"
          },
          "quantity": {
            "value": 28,
            "unit": "tablet"
          }
        }
      }
    },
    {
      "request": {
        "method": "PUT",
        "url": "Encounter/encounter-antipsych-cross-003-d"
      },
      "resource": {
        "resourceType": "Encounter",
        "id": "encounter-antipsych-cross-003-d",
        "status": "finished",
        "class": {
          "system": "http://terminology.hl7.org/CodeSystem/v3-ActCode",
          "code": "AMB",
          "display": "ambulatory"
        },
        "subject": {
          "reference": "Patient/patient-antipsych-cross-003"
        },
        "serviceProvider": {
          "reference": "Organization/org-hospital-cross-antipsych-d"
        },
        "period": {
          "start": "2025-12-08T14:00:00+08:00",
          "end": "2025-12-08T14:30:00+08:00"
        }
      }
    },
    {
      "request": {
        "method": "PUT",
        "url": "MedicationRequest/medreq-antipsych-cross-003-d"
      },
      "resource": {
        "resourceType": "MedicationRequest",
        "id": "medreq-antipsych-cross-003-d",
        "status": "completed",
        "intent": "order",
        "medicationCodeableConcept": {
          "coding": [
            {
              "system": "http://www.whocc.no/atc",
              "code": "N05AX13",
              "display": "Paliperidone"
            }
          ],
          "text": "Paliperidone 6mg"
        },
        "subject": {
          "reference": "Patient/patient-antipsych-cross-003"
        },
        "encounter": {
          "reference": "Encounter/encounter-antipsych-cross-003-d"
        },
        "authoredOn": "2025-12-08T14:00:00+08:00",
        "dispenseRequest": {
          "validityPeriod": {
            "start": "2025-12-08",
            "end": "2026-01-05"
          },
          "quantity": {
            "value": 28,
            "unit": "tablet"
          }
        }
      }
    }
  ]
}
