{
  "resourceType": "Bundle",
  "type": "transaction",
  "entry": [
    {
      "request": {
        "method": "PUT",
        "url": "Organization/org-hospital-same-sed"
      },
      "resource": {
        "resourceType": "Organization",
        "id": "org-hospital-same-sed",
        "name": "同一醫院_鎮靜劑測試",
        "type": [
          {
            "coding": [
              {
                "system": "http://terminology.hl7.org/CodeSystem/organization-type",
                "code": "prov",
                "display": "Healthcare Provider"
              }
            ]
          }
        ]
      }
    },
    {
      "request": {
        "method": "PUT",
        "url": "Patient/patient-sedative-overlap-001"
      },
      "resource": {
        "resourceType": "Patient",
        "id": "patient-sedative-overlap-001",
        "identifier": [
          {
            "system": "http://www.moi.gov.tw",
            "value": "SEDATIVE-OVERLAP-001"
          }
        ],
        "name": [
          {
            "text": "鎮靜劑重複001",
            "family": "鎮靜",
            "given": ["重複001"]
          }
        ],
        "gender": "male",
        "birthDate": "1965-03-10"
      }
    },
    {
      "request": {
        "method": "PUT",
        "url": "Patient/patient-sedative-overlap-002"
      },
      "resource": {
        "resourceType": "Patient",
        "id": "patient-sedative-overlap-002",
        "identifier": [
          {
            "system": "http://www.moi.gov.tw",
            "value": "SEDATIVE-OVERLAP-002"
          }
        ],
        "name": [
          {
            "text": "鎮靜劑重複002",
            "family": "鎮靜",
            "given": ["重複002"]
          }
        ],
        "gender": "female",
        "birthDate": "1972-07-22"
      }
    },
    {
      "request": {
        "method": "PUT",
        "url": "Patient/patient-sedative-overlap-003"
      },
      "resource": {
        "resourceType": "Patient",
        "id": "patient-sedative-overlap-003",
        "identifier": [
          {
            "system": "http://www.moi.gov.tw",
            "value": "SEDATIVE-OVERLAP-003"
          }
        ],
        "name": [
          {
            "text": "鎮靜劑重複003",
            "family": "鎮靜",
            "given": ["重複003"]
          }
        ],
        "gender": "male",
        "birthDate": "1958-11-05"
      }
    },
    {
      "request": {
        "method": "PUT",
        "url": "Encounter/encounter-sedative-001-hosp-i"
      },
      "resource": {
        "resourceType": "Encounter",
        "id": "encounter-sedative-001-hosp-i",
        "status": "finished",
        "class": {
          "system": "http://terminology.hl7.org/CodeSystem/v3-ActCode",
          "code": "AMB",
          "display": "ambulatory"
        },
        "subject": {
          "reference": "Patient/patient-sedative-overlap-001"
        },
        "serviceProvider": {
          "reference": "Organization/org-hospital-same-sed"
        },
        "period": {
          "start": "2024-01-10T09:00:00+08:00",
          "end": "2024-01-10T10:00:00+08:00"
        }
      }
    },
    {
      "request": {
        "method": "PUT",
        "url": "Encounter/encounter-sedative-001-hosp-j"
      },
      "resource": {
        "resourceType": "Encounter",
        "id": "encounter-sedative-001-hosp-j",
        "status": "finished",
        "class": {
          "system": "http://terminology.hl7.org/CodeSystem/v3-ActCode",
          "code": "AMB",
          "display": "ambulatory"
        },
        "subject": {
          "reference": "Patient/patient-sedative-overlap-001"
        },
        "serviceProvider": {
          "reference": "Organization/org-hospital-same-sed"
        },
        "period": {
          "start": "2024-01-18T14:00:00+08:00",
          "end": "2024-01-18T15:00:00+08:00"
        }
      }
    },
    {
      "request": {
        "method": "PUT",
        "url": "Encounter/encounter-sedative-002-hosp-i"
      },
      "resource": {
        "resourceType": "Encounter",
        "id": "encounter-sedative-002-hosp-i",
        "status": "finished",
        "class": {
          "system": "http://terminology.hl7.org/CodeSystem/v3-ActCode",
          "code": "AMB",
          "display": "ambulatory"
        },
        "subject": {
          "reference": "Patient/patient-sedative-overlap-002"
        },
        "serviceProvider": {
          "reference": "Organization/org-hospital-same-sed"
        },
        "period": {
          "start": "2024-02-05T10:30:00+08:00",
          "end": "2024-02-05T11:30:00+08:00"
        }
      }
    },
    {
      "request": {
        "method": "PUT",
        "url": "Encounter/encounter-sedative-002-hosp-j"
      },
      "resource": {
        "resourceType": "Encounter",
        "id": "encounter-sedative-002-hosp-j",
        "status": "finished",
        "class": {
          "system": "http://terminology.hl7.org/CodeSystem/v3-ActCode",
          "code": "AMB",
          "display": "ambulatory"
        },
        "subject": {
          "reference": "Patient/patient-sedative-overlap-002"
        },
        "serviceProvider": {
          "reference": "Organization/org-hospital-same-sed"
        },
        "period": {
          "start": "2024-02-12T15:00:00+08:00",
          "end": "2024-02-12T16:00:00+08:00"
        }
      }
    },
    {
      "request": {
        "method": "PUT",
        "url": "Encounter/encounter-sedative-003-hosp-i"
      },
      "resource": {
        "resourceType": "Encounter",
        "id": "encounter-sedative-003-hosp-i",
        "status": "finished",
        "class": {
          "system": "http://terminology.hl7.org/CodeSystem/v3-ActCode",
          "code": "AMB",
          "display": "ambulatory"
        },
        "subject": {
          "reference": "Patient/patient-sedative-overlap-003"
        },
        "serviceProvider": {
          "reference": "Organization/org-hospital-same-sed"
        },
        "period": {
          "start": "2024-03-01T09:00:00+08:00",
          "end": "2024-03-01T10:00:00+08:00"
        }
      }
    },
    {
      "request": {
        "method": "PUT",
        "url": "Encounter/encounter-sedative-003-hosp-j"
      },
      "resource": {
        "resourceType": "Encounter",
        "id": "encounter-sedative-003-hosp-j",
        "status": "finished",
        "class": {
          "system": "http://terminology.hl7.org/CodeSystem/v3-ActCode",
          "code": "AMB",
          "display": "ambulatory"
        },
        "subject": {
          "reference": "Patient/patient-sedative-overlap-003"
        },
        "serviceProvider": {
          "reference": "Organization/org-hospital-same-sed"
        },
        "period": {
          "start": "2024-03-08T13:30:00+08:00",
          "end": "2024-03-08T14:30:00+08:00"
        }
      }
    },
    {
      "request": {
        "method": "PUT",
        "url": "MedicationRequest/medreq-sedative-001-i"
      },
      "resource": {
        "resourceType": "MedicationRequest",
        "id": "medreq-sedative-001-i",
        "status": "completed",
        "intent": "order",
        "medicationCodeableConcept": {
          "coding": [
            {
              "system": "http://www.whocc.no/atc",
              "code": "N05BA01",
              "display": "Diazepam"
            }
          ],
          "text": "Diazepam 5mg"
        },
        "subject": {
          "reference": "Patient/patient-sedative-overlap-001"
        },
        "encounter": {
          "reference": "Encounter/encounter-sedative-001-hosp-i"
        },
        "authoredOn": "2024-01-10T09:30:00+08:00",
        "dispenseRequest": {
          "validityPeriod": {
            "start": "2024-01-10",
            "end": "2024-01-24"
          },
          "quantity": {
            "value": 28,
            "unit": "tablet"
          }
        }
      }
    },
    {
      "request": {
        "method": "PUT",
        "url": "MedicationRequest/medreq-sedative-001-j"
      },
      "resource": {
        "resourceType": "MedicationRequest",
        "id": "medreq-sedative-001-j",
        "status": "completed",
        "intent": "order",
        "medicationCodeableConcept": {
          "coding": [
            {
              "system": "http://www.whocc.no/atc",
              "code": "N05BA04",
              "display": "Oxazepam"
            }
          ],
          "text": "Oxazepam 15mg"
        },
        "subject": {
          "reference": "Patient/patient-sedative-overlap-001"
        },
        "encounter": {
          "reference": "Encounter/encounter-sedative-001-hosp-j"
        },
        "authoredOn": "2024-01-18T14:30:00+08:00",
        "dispenseRequest": {
          "validityPeriod": {
            "start": "2024-01-18",
            "end": "2024-02-01"
          },
          "quantity": {
            "value": 28,
            "unit": "tablet"
          }
        }
      }
    },
    {
      "request": {
        "method": "PUT",
        "url": "MedicationRequest/medreq-sedative-002-i"
      },
      "resource": {
        "resourceType": "MedicationRequest",
        "id": "medreq-sedative-002-i",
        "status": "completed",
        "intent": "order",
        "medicationCodeableConcept": {
          "coding": [
            {
              "system": "http://www.whocc.no/atc",
              "code": "N05BA06",
              "display": "Lorazepam"
            }
          ],
          "text": "Lorazepam 2mg"
        },
        "subject": {
          "reference": "Patient/patient-sedative-overlap-002"
        },
        "encounter": {
          "reference": "Encounter/encounter-sedative-002-hosp-i"
        },
        "authoredOn": "2024-02-05T11:00:00+08:00",
        "dispenseRequest": {
          "validityPeriod": {
            "start": "2024-02-05",
            "end": "2024-02-19"
          },
          "quantity": {
            "value": 28,
            "unit": "tablet"
          }
        }
      }
    },
    {
      "request": {
        "method": "PUT",
        "url": "MedicationRequest/medreq-sedative-002-j"
      },
      "resource": {
        "resourceType": "MedicationRequest",
        "id": "medreq-sedative-002-j",
        "status": "completed",
        "intent": "order",
        "medicationCodeableConcept": {
          "coding": [
            {
              "system": "http://www.whocc.no/atc",
              "code": "N05BA12",
              "display": "Alprazolam"
            }
          ],
          "text": "Alprazolam 0.5mg"
        },
        "subject": {
          "reference": "Patient/patient-sedative-overlap-002"
        },
        "encounter": {
          "reference": "Encounter/encounter-sedative-002-hosp-j"
        },
        "authoredOn": "2024-02-12T15:30:00+08:00",
        "dispenseRequest": {
          "validityPeriod": {
            "start": "2024-02-12",
            "end": "2024-02-26"
          },
          "quantity": {
            "value": 28,
            "unit": "tablet"
          }
        }
      }
    },
    {
      "request": {
        "method": "PUT",
        "url": "MedicationRequest/medreq-sedative-003-i"
      },
      "resource": {
        "resourceType": "MedicationRequest",
        "id": "medreq-sedative-003-i",
        "status": "completed",
        "intent": "order",
        "medicationCodeableConcept": {
          "coding": [
            {
              "system": "http://www.whocc.no/atc",
              "code": "N05CD02",
              "display": "Nitrazepam"
            }
          ],
          "text": "Nitrazepam 5mg"
        },
        "subject": {
          "reference": "Patient/patient-sedative-overlap-003"
        },
        "encounter": {
          "reference": "Encounter/encounter-sedative-003-hosp-i"
        },
        "authoredOn": "2024-03-01T09:30:00+08:00",
        "dispenseRequest": {
          "validityPeriod": {
            "start": "2024-03-01",
            "end": "2024-03-15"
          },
          "quantity": {
            "value": 28,
            "unit": "tablet"
          }
        }
      }
    },
    {
      "request": {
        "method": "PUT",
        "url": "MedicationRequest/medreq-sedative-003-j"
      },
      "resource": {
        "resourceType": "MedicationRequest",
        "id": "medreq-sedative-003-j",
        "status": "completed",
        "intent": "order",
        "medicationCodeableConcept": {
          "coding": [
            {
              "system": "http://www.whocc.no/atc",
              "code": "N05CD08",
              "display": "Midazolam"
            }
          ],
          "text": "Midazolam 7.5mg"
        },
        "subject": {
          "reference": "Patient/patient-sedative-overlap-003"
        },
        "encounter": {
          "reference": "Encounter/encounter-sedative-003-hosp-j"
        },
        "authoredOn": "2024-03-08T14:00:00+08:00",
        "dispenseRequest": {
          "validityPeriod": {
            "start": "2024-03-08",
            "end": "2024-03-22"
          },
          "quantity": {
            "value": 28,
            "unit": "tablet"
          }
        }
      }
    }
  ]
}
