{
    "resourceType":  "Bundle",
    "entry":  [
                  {
                      "resource":  {
                                       "resourceType":  "Patient",
                                       "birthDate":  "1960-01-01",
                                       "id":  "knee-arthroplasty-patient-001",
                                       "gender":  "male"
                                   },
                      "fullUrl":  "Patient/knee-arthroplasty-patient-001",
                      "request":  {
                                      "method":  "PUT",
                                      "url":  "Patient/knee-arthroplasty-patient-001"
                                  }
                  },
                  {
                      "resource":  {
                                       "id":  "enc-knee-arthroplasty-001",
                                       "class":  {
                                                     "code":  "IMP",
                                                     "display":  "住院"
                                                 },
                                       "resourceType":  "Encounter",
                                       "subject":  {
                                                       "reference":  "Patient/knee-arthroplasty-patient-001"
                                                   },
                                       "period":  {
                                                      "start":  "2025-10-15T08:00:00Z",
                                                      "end":  "2025-10-15T20:00:00Z"
                                                  },
                                       "status":  "finished"
                                   },
                      "fullUrl":  "Encounter/enc-knee-arthroplasty-001",
                      "request":  {
                                      "method":  "PUT",
                                      "url":  "Encounter/enc-knee-arthroplasty-001"
                                  }
                  },
                  {
                      "resource":  {
                                       "id":  "proc-knee-arthroplasty-001",
                                       "code":  {
                                                    "coding":  [
                                                                   {
                                                                       "code":  "0SRC0JZ",
                                                                       "display":  "人工膝關節置換",
                                                                       "system":  "http://hl7.org/fhir/sid/icd-10-pcs"
                                                                   }
                                                               ]
                                                },
                                       "subject":  {
                                                       "reference":  "Patient/knee-arthroplasty-patient-001"
                                                   },
                                       "encounter":  {
                                                         "reference":  "Encounter/enc-knee-arthroplasty-001"
                                                     },
                                       "resourceType":  "Procedure",
                                       "performedDateTime":  "2025-10-15T10:00:00Z",
                                       "status":  "completed"
                                   },
                      "fullUrl":  "Procedure/proc-knee-arthroplasty-001",
                      "request":  {
                                      "method":  "PUT",
                                      "url":  "Procedure/proc-knee-arthroplasty-001"
                                  }
                  },
                  {
                      "resource":  {
                                       "resourceType":  "Condition",
                                       "encounter":  {
                                                         "reference":  "Encounter/enc-knee-arthroplasty-001"
                                                     },
                                       "code":  {
                                                    "coding":  [
                                                                   {
                                                                       "code":  "T84.54XA",
                                                                       "display":  "膝關節深部感染",
                                                                       "system":  "http://hl7.org/fhir/sid/icd-10-cm"
                                                                   }
                                                               ]
                                                },
                                       "id":  "cond-knee-arthroplasty-001",
                                       "subject":  {
                                                       "reference":  "Patient/knee-arthroplasty-patient-001"
                                                   }
                                   },
                      "fullUrl":  "Condition/cond-knee-arthroplasty-001",
                      "request":  {
                                      "method":  "PUT",
                                      "url":  "Condition/cond-knee-arthroplasty-001"
                                  }
                  },
                  {
                      "resource":  {
                                       "resourceType":  "Patient",
                                       "birthDate":  "1960-01-01",
                                       "id":  "knee-arthroplasty-patient-002",
                                       "gender":  "female"
                                   },
                      "fullUrl":  "Patient/knee-arthroplasty-patient-002",
                      "request":  {
                                      "method":  "PUT",
                                      "url":  "Patient/knee-arthroplasty-patient-002"
                                  }
                  },
                  {
                      "resource":  {
                                       "id":  "enc-knee-arthroplasty-002",
                                       "class":  {
                                                     "code":  "IMP",
                                                     "display":  "住院"
                                                 },
                                       "resourceType":  "Encounter",
                                       "subject":  {
                                                       "reference":  "Patient/knee-arthroplasty-patient-002"
                                                   },
                                       "period":  {
                                                      "start":  "2025-10-18T08:00:00Z",
                                                      "end":  "2025-10-18T20:00:00Z"
                                                  },
                                       "status":  "finished"
                                   },
                      "fullUrl":  "Encounter/enc-knee-arthroplasty-002",
                      "request":  {
                                      "method":  "PUT",
                                      "url":  "Encounter/enc-knee-arthroplasty-002"
                                  }
                  },
                  {
                      "resource":  {
                                       "id":  "proc-knee-arthroplasty-002",
                                       "code":  {
                                                    "coding":  [
                                                                   {
                                                                       "code":  "0SRC0JZ",
                                                                       "display":  "人工膝關節置換",
                                                                       "system":  "http://hl7.org/fhir/sid/icd-10-pcs"
                                                                   }
                                                               ]
                                                },
                                       "subject":  {
                                                       "reference":  "Patient/knee-arthroplasty-patient-002"
                                                   },
                                       "encounter":  {
                                                         "reference":  "Encounter/enc-knee-arthroplasty-002"
                                                     },
                                       "resourceType":  "Procedure",
                                       "performedDateTime":  "2025-10-18T10:00:00Z",
                                       "status":  "completed"
                                   },
                      "fullUrl":  "Procedure/proc-knee-arthroplasty-002",
                      "request":  {
                                      "method":  "PUT",
                                      "url":  "Procedure/proc-knee-arthroplasty-002"
                                  }
                  },
                  {
                      "resource":  {
                                       "resourceType":  "Condition",
                                       "encounter":  {
                                                         "reference":  "Encounter/enc-knee-arthroplasty-002"
                                                     },
                                       "code":  {
                                                    "coding":  [
                                                                   {
                                                                       "code":  "T84.54XA",
                                                                       "display":  "膝關節深部感染",
                                                                       "system":  "http://hl7.org/fhir/sid/icd-10-cm"
                                                                   }
                                                               ]
                                                },
                                       "id":  "cond-knee-arthroplasty-002",
                                       "subject":  {
                                                       "reference":  "Patient/knee-arthroplasty-patient-002"
                                                   }
                                   },
                      "fullUrl":  "Condition/cond-knee-arthroplasty-002",
                      "request":  {
                                      "method":  "PUT",
                                      "url":  "Condition/cond-knee-arthroplasty-002"
                                  }
                  },
                  {
                      "resource":  {
                                       "resourceType":  "Patient",
                                       "birthDate":  "1960-01-01",
                                       "id":  "knee-arthroplasty-patient-003",
                                       "gender":  "male"
                                   },
                      "fullUrl":  "Patient/knee-arthroplasty-patient-003",
                      "request":  {
                                      "method":  "PUT",
                                      "url":  "Patient/knee-arthroplasty-patient-003"
                                  }
                  },
                  {
                      "resource":  {
                                       "id":  "enc-knee-arthroplasty-003",
                                       "class":  {
                                                     "code":  "IMP",
                                                     "display":  "住院"
                                                 },
                                       "resourceType":  "Encounter",
                                       "subject":  {
                                                       "reference":  "Patient/knee-arthroplasty-patient-003"
                                                   },
                                       "period":  {
                                                      "start":  "2025-10-21T08:00:00Z",
                                                      "end":  "2025-10-21T20:00:00Z"
                                                  },
                                       "status":  "finished"
                                   },
                      "fullUrl":  "Encounter/enc-knee-arthroplasty-003",
                      "request":  {
                                      "method":  "PUT",
                                      "url":  "Encounter/enc-knee-arthroplasty-003"
                                  }
                  },
                  {
                      "resource":  {
                                       "id":  "proc-knee-arthroplasty-003",
                                       "code":  {
                                                    "coding":  [
                                                                   {
                                                                       "code":  "0SRC0JZ",
                                                                       "display":  "人工膝關節置換",
                                                                       "system":  "http://hl7.org/fhir/sid/icd-10-pcs"
                                                                   }
                                                               ]
                                                },
                                       "subject":  {
                                                       "reference":  "Patient/knee-arthroplasty-patient-003"
                                                   },
                                       "encounter":  {
                                                         "reference":  "Encounter/enc-knee-arthroplasty-003"
                                                     },
                                       "resourceType":  "Procedure",
                                       "performedDateTime":  "2025-10-21T10:00:00Z",
                                       "status":  "completed"
                                   },
                      "fullUrl":  "Procedure/proc-knee-arthroplasty-003",
                      "request":  {
                                      "method":  "PUT",
                                      "url":  "Procedure/proc-knee-arthroplasty-003"
                                  }
                  },
                  {
                      "resource":  {
                                       "resourceType":  "Condition",
                                       "encounter":  {
                                                         "reference":  "Encounter/enc-knee-arthroplasty-003"
                                                     },
                                       "code":  {
                                                    "coding":  [
                                                                   {
                                                                       "code":  "T84.54XA",
                                                                       "display":  "膝關節深部感染",
                                                                       "system":  "http://hl7.org/fhir/sid/icd-10-cm"
                                                                   }
                                                               ]
                                                },
                                       "id":  "cond-knee-arthroplasty-003",
                                       "subject":  {
                                                       "reference":  "Patient/knee-arthroplasty-patient-003"
                                                   }
                                   },
                      "fullUrl":  "Condition/cond-knee-arthroplasty-003",
                      "request":  {
                                      "method":  "PUT",
                                      "url":  "Condition/cond-knee-arthroplasty-003"
                                  }
                  },
                  {
                      "resource":  {
                                       "resourceType":  "Patient",
                                       "birthDate":  "1960-01-01",
                                       "id":  "knee-arthroplasty-patient-004",
                                       "gender":  "female"
                                   },
                      "fullUrl":  "Patient/knee-arthroplasty-patient-004",
                      "request":  {
                                      "method":  "PUT",
                                      "url":  "Patient/knee-arthroplasty-patient-004"
                                  }
                  },
                  {
                      "resource":  {
                                       "id":  "enc-knee-arthroplasty-004",
                                       "class":  {
                                                     "code":  "IMP",
                                                     "display":  "住院"
                                                 },
                                       "resourceType":  "Encounter",
                                       "subject":  {
                                                       "reference":  "Patient/knee-arthroplasty-patient-004"
                                                   },
                                       "period":  {
                                                      "start":  "2025-10-24T08:00:00Z",
                                                      "end":  "2025-10-24T20:00:00Z"
                                                  },
                                       "status":  "finished"
                                   },
                      "fullUrl":  "Encounter/enc-knee-arthroplasty-004",
                      "request":  {
                                      "method":  "PUT",
                                      "url":  "Encounter/enc-knee-arthroplasty-004"
                                  }
                  },
                  {
                      "resource":  {
                                       "id":  "proc-knee-arthroplasty-004",
                                       "code":  {
                                                    "coding":  [
                                                                   {
                                                                       "code":  "0SRC0JZ",
                                                                       "display":  "人工膝關節置換",
                                                                       "system":  "http://hl7.org/fhir/sid/icd-10-pcs"
                                                                   }
                                                               ]
                                                },
                                       "subject":  {
                                                       "reference":  "Patient/knee-arthroplasty-patient-004"
                                                   },
                                       "encounter":  {
                                                         "reference":  "Encounter/enc-knee-arthroplasty-004"
                                                     },
                                       "resourceType":  "Procedure",
                                       "performedDateTime":  "2025-10-24T10:00:00Z",
                                       "status":  "completed"
                                   },
                      "fullUrl":  "Procedure/proc-knee-arthroplasty-004",
                      "request":  {
                                      "method":  "PUT",
                                      "url":  "Procedure/proc-knee-arthroplasty-004"
                                  }
                  },
                  {
                      "resource":  {
                                       "resourceType":  "Condition",
                                       "encounter":  {
                                                         "reference":  "Encounter/enc-knee-arthroplasty-004"
                                                     },
                                       "code":  {
                                                    "coding":  [
                                                                   {
                                                                       "code":  "T84.54XA",
                                                                       "display":  "膝關節深部感染",
                                                                       "system":  "http://hl7.org/fhir/sid/icd-10-cm"
                                                                   }
                                                               ]
                                                },
                                       "id":  "cond-knee-arthroplasty-004",
                                       "subject":  {
                                                       "reference":  "Patient/knee-arthroplasty-patient-004"
                                                   }
                                   },
                      "fullUrl":  "Condition/cond-knee-arthroplasty-004",
                      "request":  {
                                      "method":  "PUT",
                                      "url":  "Condition/cond-knee-arthroplasty-004"
                                  }
                  },
                  {
                      "resource":  {
                                       "resourceType":  "Patient",
                                       "birthDate":  "1960-01-01",
                                       "id":  "knee-arthroplasty-patient-005",
                                       "gender":  "male"
                                   },
                      "fullUrl":  "Patient/knee-arthroplasty-patient-005",
                      "request":  {
                                      "method":  "PUT",
                                      "url":  "Patient/knee-arthroplasty-patient-005"
                                  }
                  },
                  {
                      "resource":  {
                                       "id":  "enc-knee-arthroplasty-005",
                                       "class":  {
                                                     "code":  "IMP",
                                                     "display":  "住院"
                                                 },
                                       "resourceType":  "Encounter",
                                       "subject":  {
                                                       "reference":  "Patient/knee-arthroplasty-patient-005"
                                                   },
                                       "period":  {
                                                      "start":  "2025-10-27T08:00:00Z",
                                                      "end":  "2025-10-27T20:00:00Z"
                                                  },
                                       "status":  "finished"
                                   },
                      "fullUrl":  "Encounter/enc-knee-arthroplasty-005",
                      "request":  {
                                      "method":  "PUT",
                                      "url":  "Encounter/enc-knee-arthroplasty-005"
                                  }
                  },
                  {
                      "resource":  {
                                       "id":  "proc-knee-arthroplasty-005",
                                       "code":  {
                                                    "coding":  [
                                                                   {
                                                                       "code":  "0SRC0JZ",
                                                                       "display":  "人工膝關節置換",
                                                                       "system":  "http://hl7.org/fhir/sid/icd-10-pcs"
                                                                   }
                                                               ]
                                                },
                                       "subject":  {
                                                       "reference":  "Patient/knee-arthroplasty-patient-005"
                                                   },
                                       "encounter":  {
                                                         "reference":  "Encounter/enc-knee-arthroplasty-005"
                                                     },
                                       "resourceType":  "Procedure",
                                       "performedDateTime":  "2025-10-27T10:00:00Z",
                                       "status":  "completed"
                                   },
                      "fullUrl":  "Procedure/proc-knee-arthroplasty-005",
                      "request":  {
                                      "method":  "PUT",
                                      "url":  "Procedure/proc-knee-arthroplasty-005"
                                  }
                  },
                  {
                      "resource":  {
                                       "resourceType":  "Condition",
                                       "encounter":  {
                                                         "reference":  "Encounter/enc-knee-arthroplasty-005"
                                                     },
                                       "code":  {
                                                    "coding":  [
                                                                   {
                                                                       "code":  "T84.54XA",
                                                                       "display":  "膝關節深部感染",
                                                                       "system":  "http://hl7.org/fhir/sid/icd-10-cm"
                                                                   }
                                                               ]
                                                },
                                       "id":  "cond-knee-arthroplasty-005",
                                       "subject":  {
                                                       "reference":  "Patient/knee-arthroplasty-patient-005"
                                                   }
                                   },
                      "fullUrl":  "Condition/cond-knee-arthroplasty-005",
                      "request":  {
                                      "method":  "PUT",
                                      "url":  "Condition/cond-knee-arthroplasty-005"
                                  }
                  },
                  {
                      "resource":  {
                                       "resourceType":  "Patient",
                                       "birthDate":  "1960-01-01",
                                       "id":  "knee-arthroplasty-patient-006",
                                       "gender":  "female"
                                   },
                      "fullUrl":  "Patient/knee-arthroplasty-patient-006",
                      "request":  {
                                      "method":  "PUT",
                                      "url":  "Patient/knee-arthroplasty-patient-006"
                                  }
                  },
                  {
                      "resource":  {
                                       "id":  "enc-knee-arthroplasty-006",
                                       "class":  {
                                                     "code":  "IMP",
                                                     "display":  "住院"
                                                 },
                                       "resourceType":  "Encounter",
                                       "subject":  {
                                                       "reference":  "Patient/knee-arthroplasty-patient-006"
                                                   },
                                       "period":  {
                                                      "start":  "2025-10-30T08:00:00Z",
                                                      "end":  "2025-10-30T20:00:00Z"
                                                  },
                                       "status":  "finished"
                                   },
                      "fullUrl":  "Encounter/enc-knee-arthroplasty-006",
                      "request":  {
                                      "method":  "PUT",
                                      "url":  "Encounter/enc-knee-arthroplasty-006"
                                  }
                  },
                  {
                      "resource":  {
                                       "id":  "proc-knee-arthroplasty-006",
                                       "code":  {
                                                    "coding":  [
                                                                   {
                                                                       "code":  "0SRC0JZ",
                                                                       "display":  "人工膝關節置換",
                                                                       "system":  "http://hl7.org/fhir/sid/icd-10-pcs"
                                                                   }
                                                               ]
                                                },
                                       "subject":  {
                                                       "reference":  "Patient/knee-arthroplasty-patient-006"
                                                   },
                                       "encounter":  {
                                                         "reference":  "Encounter/enc-knee-arthroplasty-006"
                                                     },
                                       "resourceType":  "Procedure",
                                       "performedDateTime":  "2025-10-30T10:00:00Z",
                                       "status":  "completed"
                                   },
                      "fullUrl":  "Procedure/proc-knee-arthroplasty-006",
                      "request":  {
                                      "method":  "PUT",
                                      "url":  "Procedure/proc-knee-arthroplasty-006"
                                  }
                  },
                  {
                      "resource":  {
                                       "resourceType":  "Condition",
                                       "encounter":  {
                                                         "reference":  "Encounter/enc-knee-arthroplasty-006"
                                                     },
                                       "code":  {
                                                    "coding":  [
                                                                   {
                                                                       "code":  "T84.54XA",
                                                                       "display":  "膝關節深部感染",
                                                                       "system":  "http://hl7.org/fhir/sid/icd-10-cm"
                                                                   }
                                                               ]
                                                },
                                       "id":  "cond-knee-arthroplasty-006",
                                       "subject":  {
                                                       "reference":  "Patient/knee-arthroplasty-patient-006"
                                                   }
                                   },
                      "fullUrl":  "Condition/cond-knee-arthroplasty-006",
                      "request":  {
                                      "method":  "PUT",
                                      "url":  "Condition/cond-knee-arthroplasty-006"
                                  }
                  },
                  {
                      "resource":  {
                                       "resourceType":  "Patient",
                                       "birthDate":  "1960-01-01",
                                       "id":  "knee-arthroplasty-patient-007",
                                       "gender":  "male"
                                   },
                      "fullUrl":  "Patient/knee-arthroplasty-patient-007",
                      "request":  {
                                      "method":  "PUT",
                                      "url":  "Patient/knee-arthroplasty-patient-007"
                                  }
                  },
                  {
                      "resource":  {
                                       "id":  "enc-knee-arthroplasty-007",
                                       "class":  {
                                                     "code":  "IMP",
                                                     "display":  "住院"
                                                 },
                                       "resourceType":  "Encounter",
                                       "subject":  {
                                                       "reference":  "Patient/knee-arthroplasty-patient-007"
                                                   },
                                       "period":  {
                                                      "start":  "2025-11-02T08:00:00Z",
                                                      "end":  "2025-11-02T20:00:00Z"
                                                  },
                                       "status":  "finished"
                                   },
                      "fullUrl":  "Encounter/enc-knee-arthroplasty-007",
                      "request":  {
                                      "method":  "PUT",
                                      "url":  "Encounter/enc-knee-arthroplasty-007"
                                  }
                  },
                  {
                      "resource":  {
                                       "id":  "proc-knee-arthroplasty-007",
                                       "code":  {
                                                    "coding":  [
                                                                   {
                                                                       "code":  "0SRC0JZ",
                                                                       "display":  "人工膝關節置換",
                                                                       "system":  "http://hl7.org/fhir/sid/icd-10-pcs"
                                                                   }
                                                               ]
                                                },
                                       "subject":  {
                                                       "reference":  "Patient/knee-arthroplasty-patient-007"
                                                   },
                                       "encounter":  {
                                                         "reference":  "Encounter/enc-knee-arthroplasty-007"
                                                     },
                                       "resourceType":  "Procedure",
                                       "performedDateTime":  "2025-11-02T10:00:00Z",
                                       "status":  "completed"
                                   },
                      "fullUrl":  "Procedure/proc-knee-arthroplasty-007",
                      "request":  {
                                      "method":  "PUT",
                                      "url":  "Procedure/proc-knee-arthroplasty-007"
                                  }
                  },
                  {
                      "resource":  {
                                       "resourceType":  "Condition",
                                       "encounter":  {
                                                         "reference":  "Encounter/enc-knee-arthroplasty-007"
                                                     },
                                       "code":  {
                                                    "coding":  [
                                                                   {
                                                                       "code":  "T84.54XA",
                                                                       "display":  "膝關節深部感染",
                                                                       "system":  "http://hl7.org/fhir/sid/icd-10-cm"
                                                                   }
                                                               ]
                                                },
                                       "id":  "cond-knee-arthroplasty-007",
                                       "subject":  {
                                                       "reference":  "Patient/knee-arthroplasty-patient-007"
                                                   }
                                   },
                      "fullUrl":  "Condition/cond-knee-arthroplasty-007",
                      "request":  {
                                      "method":  "PUT",
                                      "url":  "Condition/cond-knee-arthroplasty-007"
                                  }
                  },
                  {
                      "resource":  {
                                       "resourceType":  "Patient",
                                       "birthDate":  "1960-01-01",
                                       "id":  "knee-arthroplasty-patient-008",
                                       "gender":  "female"
                                   },
                      "fullUrl":  "Patient/knee-arthroplasty-patient-008",
                      "request":  {
                                      "method":  "PUT",
                                      "url":  "Patient/knee-arthroplasty-patient-008"
                                  }
                  },
                  {
                      "resource":  {
                                       "id":  "enc-knee-arthroplasty-008",
                                       "class":  {
                                                     "code":  "IMP",
                                                     "display":  "住院"
                                                 },
                                       "resourceType":  "Encounter",
                                       "subject":  {
                                                       "reference":  "Patient/knee-arthroplasty-patient-008"
                                                   },
                                       "period":  {
                                                      "start":  "2025-11-05T08:00:00Z",
                                                      "end":  "2025-11-05T20:00:00Z"
                                                  },
                                       "status":  "finished"
                                   },
                      "fullUrl":  "Encounter/enc-knee-arthroplasty-008",
                      "request":  {
                                      "method":  "PUT",
                                      "url":  "Encounter/enc-knee-arthroplasty-008"
                                  }
                  },
                  {
                      "resource":  {
                                       "id":  "proc-knee-arthroplasty-008",
                                       "code":  {
                                                    "coding":  [
                                                                   {
                                                                       "code":  "0SRC0JZ",
                                                                       "display":  "人工膝關節置換",
                                                                       "system":  "http://hl7.org/fhir/sid/icd-10-pcs"
                                                                   }
                                                               ]
                                                },
                                       "subject":  {
                                                       "reference":  "Patient/knee-arthroplasty-patient-008"
                                                   },
                                       "encounter":  {
                                                         "reference":  "Encounter/enc-knee-arthroplasty-008"
                                                     },
                                       "resourceType":  "Procedure",
                                       "performedDateTime":  "2025-11-05T10:00:00Z",
                                       "status":  "completed"
                                   },
                      "fullUrl":  "Procedure/proc-knee-arthroplasty-008",
                      "request":  {
                                      "method":  "PUT",
                                      "url":  "Procedure/proc-knee-arthroplasty-008"
                                  }
                  },
                  {
                      "resource":  {
                                       "resourceType":  "Condition",
                                       "encounter":  {
                                                         "reference":  "Encounter/enc-knee-arthroplasty-008"
                                                     },
                                       "code":  {
                                                    "coding":  [
                                                                   {
                                                                       "code":  "T84.54XA",
                                                                       "display":  "膝關節深部感染",
                                                                       "system":  "http://hl7.org/fhir/sid/icd-10-cm"
                                                                   }
                                                               ]
                                                },
                                       "id":  "cond-knee-arthroplasty-008",
                                       "subject":  {
                                                       "reference":  "Patient/knee-arthroplasty-patient-008"
                                                   }
                                   },
                      "fullUrl":  "Condition/cond-knee-arthroplasty-008",
                      "request":  {
                                      "method":  "PUT",
                                      "url":  "Condition/cond-knee-arthroplasty-008"
                                  }
                  },
                  {
                      "resource":  {
                                       "resourceType":  "Patient",
                                       "birthDate":  "1960-01-01",
                                       "id":  "knee-arthroplasty-patient-009",
                                       "gender":  "male"
                                   },
                      "fullUrl":  "Patient/knee-arthroplasty-patient-009",
                      "request":  {
                                      "method":  "PUT",
                                      "url":  "Patient/knee-arthroplasty-patient-009"
                                  }
                  },
                  {
                      "resource":  {
                                       "id":  "enc-knee-arthroplasty-009",
                                       "class":  {
                                                     "code":  "IMP",
                                                     "display":  "住院"
                                                 },
                                       "resourceType":  "Encounter",
                                       "subject":  {
                                                       "reference":  "Patient/knee-arthroplasty-patient-009"
                                                   },
                                       "period":  {
                                                      "start":  "2025-11-08T08:00:00Z",
                                                      "end":  "2025-11-08T20:00:00Z"
                                                  },
                                       "status":  "finished"
                                   },
                      "fullUrl":  "Encounter/enc-knee-arthroplasty-009",
                      "request":  {
                                      "method":  "PUT",
                                      "url":  "Encounter/enc-knee-arthroplasty-009"
                                  }
                  },
                  {
                      "resource":  {
                                       "id":  "proc-knee-arthroplasty-009",
                                       "code":  {
                                                    "coding":  [
                                                                   {
                                                                       "code":  "0SRC0JZ",
                                                                       "display":  "人工膝關節置換",
                                                                       "system":  "http://hl7.org/fhir/sid/icd-10-pcs"
                                                                   }
                                                               ]
                                                },
                                       "subject":  {
                                                       "reference":  "Patient/knee-arthroplasty-patient-009"
                                                   },
                                       "encounter":  {
                                                         "reference":  "Encounter/enc-knee-arthroplasty-009"
                                                     },
                                       "resourceType":  "Procedure",
                                       "performedDateTime":  "2025-11-08T10:00:00Z",
                                       "status":  "completed"
                                   },
                      "fullUrl":  "Procedure/proc-knee-arthroplasty-009",
                      "request":  {
                                      "method":  "PUT",
                                      "url":  "Procedure/proc-knee-arthroplasty-009"
                                  }
                  },
                  {
                      "resource":  {
                                       "resourceType":  "Condition",
                                       "encounter":  {
                                                         "reference":  "Encounter/enc-knee-arthroplasty-009"
                                                     },
                                       "code":  {
                                                    "coding":  [
                                                                   {
                                                                       "code":  "T84.54XA",
                                                                       "display":  "膝關節深部感染",
                                                                       "system":  "http://hl7.org/fhir/sid/icd-10-cm"
                                                                   }
                                                               ]
                                                },
                                       "id":  "cond-knee-arthroplasty-009",
                                       "subject":  {
                                                       "reference":  "Patient/knee-arthroplasty-patient-009"
                                                   }
                                   },
                      "fullUrl":  "Condition/cond-knee-arthroplasty-009",
                      "request":  {
                                      "method":  "PUT",
                                      "url":  "Condition/cond-knee-arthroplasty-009"
                                  }
                  },
                  {
                      "resource":  {
                                       "resourceType":  "Patient",
                                       "birthDate":  "1960-01-01",
                                       "id":  "knee-arthroplasty-patient-010",
                                       "gender":  "female"
                                   },
                      "fullUrl":  "Patient/knee-arthroplasty-patient-010",
                      "request":  {
                                      "method":  "PUT",
                                      "url":  "Patient/knee-arthroplasty-patient-010"
                                  }
                  },
                  {
                      "resource":  {
                                       "id":  "enc-knee-arthroplasty-010",
                                       "class":  {
                                                     "code":  "IMP",
                                                     "display":  "住院"
                                                 },
                                       "resourceType":  "Encounter",
                                       "subject":  {
                                                       "reference":  "Patient/knee-arthroplasty-patient-010"
                                                   },
                                       "period":  {
                                                      "start":  "2025-11-11T08:00:00Z",
                                                      "end":  "2025-11-11T20:00:00Z"
                                                  },
                                       "status":  "finished"
                                   },
                      "fullUrl":  "Encounter/enc-knee-arthroplasty-010",
                      "request":  {
                                      "method":  "PUT",
                                      "url":  "Encounter/enc-knee-arthroplasty-010"
                                  }
                  },
                  {
                      "resource":  {
                                       "id":  "proc-knee-arthroplasty-010",
                                       "code":  {
                                                    "coding":  [
                                                                   {
                                                                       "code":  "0SRC0JZ",
                                                                       "display":  "人工膝關節置換",
                                                                       "system":  "http://hl7.org/fhir/sid/icd-10-pcs"
                                                                   }
                                                               ]
                                                },
                                       "subject":  {
                                                       "reference":  "Patient/knee-arthroplasty-patient-010"
                                                   },
                                       "encounter":  {
                                                         "reference":  "Encounter/enc-knee-arthroplasty-010"
                                                     },
                                       "resourceType":  "Procedure",
                                       "performedDateTime":  "2025-11-11T10:00:00Z",
                                       "status":  "completed"
                                   },
                      "fullUrl":  "Procedure/proc-knee-arthroplasty-010",
                      "request":  {
                                      "method":  "PUT",
                                      "url":  "Procedure/proc-knee-arthroplasty-010"
                                  }
                  },
                  {
                      "resource":  {
                                       "resourceType":  "Condition",
                                       "encounter":  {
                                                         "reference":  "Encounter/enc-knee-arthroplasty-010"
                                                     },
                                       "code":  {
                                                    "coding":  [
                                                                   {
                                                                       "code":  "T84.54XA",
                                                                       "display":  "膝關節深部感染",
                                                                       "system":  "http://hl7.org/fhir/sid/icd-10-cm"
                                                                   }
                                                               ]
                                                },
                                       "id":  "cond-knee-arthroplasty-010",
                                       "subject":  {
                                                       "reference":  "Patient/knee-arthroplasty-patient-010"
                                                   }
                                   },
                      "fullUrl":  "Condition/cond-knee-arthroplasty-010",
                      "request":  {
                                      "method":  "PUT",
                                      "url":  "Condition/cond-knee-arthroplasty-010"
                                  }
                  },
                  {
                      "resource":  {
                                       "resourceType":  "Patient",
                                       "birthDate":  "1960-01-01",
                                       "id":  "knee-arthroplasty-patient-011",
                                       "gender":  "male"
                                   },
                      "fullUrl":  "Patient/knee-arthroplasty-patient-011",
                      "request":  {
                                      "method":  "PUT",
                                      "url":  "Patient/knee-arthroplasty-patient-011"
                                  }
                  },
                  {
                      "resource":  {
                                       "id":  "enc-knee-arthroplasty-011",
                                       "class":  {
                                                     "code":  "IMP",
                                                     "display":  "住院"
                                                 },
                                       "resourceType":  "Encounter",
                                       "subject":  {
                                                       "reference":  "Patient/knee-arthroplasty-patient-011"
                                                   },
                                       "period":  {
                                                      "start":  "2025-11-14T08:00:00Z",
                                                      "end":  "2025-11-14T20:00:00Z"
                                                  },
                                       "status":  "finished"
                                   },
                      "fullUrl":  "Encounter/enc-knee-arthroplasty-011",
                      "request":  {
                                      "method":  "PUT",
                                      "url":  "Encounter/enc-knee-arthroplasty-011"
                                  }
                  },
                  {
                      "resource":  {
                                       "id":  "proc-knee-arthroplasty-011",
                                       "code":  {
                                                    "coding":  [
                                                                   {
                                                                       "code":  "0SRC0JZ",
                                                                       "display":  "人工膝關節置換",
                                                                       "system":  "http://hl7.org/fhir/sid/icd-10-pcs"
                                                                   }
                                                               ]
                                                },
                                       "subject":  {
                                                       "reference":  "Patient/knee-arthroplasty-patient-011"
                                                   },
                                       "encounter":  {
                                                         "reference":  "Encounter/enc-knee-arthroplasty-011"
                                                     },
                                       "resourceType":  "Procedure",
                                       "performedDateTime":  "2025-11-14T10:00:00Z",
                                       "status":  "completed"
                                   },
                      "fullUrl":  "Procedure/proc-knee-arthroplasty-011",
                      "request":  {
                                      "method":  "PUT",
                                      "url":  "Procedure/proc-knee-arthroplasty-011"
                                  }
                  },
                  {
                      "resource":  {
                                       "resourceType":  "Condition",
                                       "encounter":  {
                                                         "reference":  "Encounter/enc-knee-arthroplasty-011"
                                                     },
                                       "code":  {
                                                    "coding":  [
                                                                   {
                                                                       "code":  "T84.54XA",
                                                                       "display":  "膝關節深部感染",
                                                                       "system":  "http://hl7.org/fhir/sid/icd-10-cm"
                                                                   }
                                                               ]
                                                },
                                       "id":  "cond-knee-arthroplasty-011",
                                       "subject":  {
                                                       "reference":  "Patient/knee-arthroplasty-patient-011"
                                                   }
                                   },
                      "fullUrl":  "Condition/cond-knee-arthroplasty-011",
                      "request":  {
                                      "method":  "PUT",
                                      "url":  "Condition/cond-knee-arthroplasty-011"
                                  }
                  },
                  {
                      "resource":  {
                                       "resourceType":  "Patient",
                                       "birthDate":  "1960-01-01",
                                       "id":  "knee-arthroplasty-patient-012",
                                       "gender":  "female"
                                   },
                      "fullUrl":  "Patient/knee-arthroplasty-patient-012",
                      "request":  {
                                      "method":  "PUT",
                                      "url":  "Patient/knee-arthroplasty-patient-012"
                                  }
                  },
                  {
                      "resource":  {
                                       "id":  "enc-knee-arthroplasty-012",
                                       "class":  {
                                                     "code":  "IMP",
                                                     "display":  "住院"
                                                 },
                                       "resourceType":  "Encounter",
                                       "subject":  {
                                                       "reference":  "Patient/knee-arthroplasty-patient-012"
                                                   },
                                       "period":  {
                                                      "start":  "2025-11-17T08:00:00Z",
                                                      "end":  "2025-11-17T20:00:00Z"
                                                  },
                                       "status":  "finished"
                                   },
                      "fullUrl":  "Encounter/enc-knee-arthroplasty-012",
                      "request":  {
                                      "method":  "PUT",
                                      "url":  "Encounter/enc-knee-arthroplasty-012"
                                  }
                  },
                  {
                      "resource":  {
                                       "id":  "proc-knee-arthroplasty-012",
                                       "code":  {
                                                    "coding":  [
                                                                   {
                                                                       "code":  "0SRC0JZ",
                                                                       "display":  "人工膝關節置換",
                                                                       "system":  "http://hl7.org/fhir/sid/icd-10-pcs"
                                                                   }
                                                               ]
                                                },
                                       "subject":  {
                                                       "reference":  "Patient/knee-arthroplasty-patient-012"
                                                   },
                                       "encounter":  {
                                                         "reference":  "Encounter/enc-knee-arthroplasty-012"
                                                     },
                                       "resourceType":  "Procedure",
                                       "performedDateTime":  "2025-11-17T10:00:00Z",
                                       "status":  "completed"
                                   },
                      "fullUrl":  "Procedure/proc-knee-arthroplasty-012",
                      "request":  {
                                      "method":  "PUT",
                                      "url":  "Procedure/proc-knee-arthroplasty-012"
                                  }
                  },
                  {
                      "resource":  {
                                       "resourceType":  "Condition",
                                       "encounter":  {
                                                         "reference":  "Encounter/enc-knee-arthroplasty-012"
                                                     },
                                       "code":  {
                                                    "coding":  [
                                                                   {
                                                                       "code":  "Z98.89",
                                                                       "display":  "術後正常恢復",
                                                                       "system":  "http://hl7.org/fhir/sid/icd-10-cm"
                                                                   }
                                                               ]
                                                },
                                       "id":  "cond-knee-arthroplasty-012",
                                       "subject":  {
                                                       "reference":  "Patient/knee-arthroplasty-patient-012"
                                                   }
                                   },
                      "fullUrl":  "Condition/cond-knee-arthroplasty-012",
                      "request":  {
                                      "method":  "PUT",
                                      "url":  "Condition/cond-knee-arthroplasty-012"
                                  }
                  },
                  {
                      "resource":  {
                                       "resourceType":  "Patient",
                                       "birthDate":  "1960-01-01",
                                       "id":  "knee-arthroplasty-patient-013",
                                       "gender":  "male"
                                   },
                      "fullUrl":  "Patient/knee-arthroplasty-patient-013",
                      "request":  {
                                      "method":  "PUT",
                                      "url":  "Patient/knee-arthroplasty-patient-013"
                                  }
                  },
                  {
                      "resource":  {
                                       "id":  "enc-knee-arthroplasty-013",
                                       "class":  {
                                                     "code":  "IMP",
                                                     "display":  "住院"
                                                 },
                                       "resourceType":  "Encounter",
                                       "subject":  {
                                                       "reference":  "Patient/knee-arthroplasty-patient-013"
                                                   },
                                       "period":  {
                                                      "start":  "2025-11-20T08:00:00Z",
                                                      "end":  "2025-11-20T20:00:00Z"
                                                  },
                                       "status":  "finished"
                                   },
                      "fullUrl":  "Encounter/enc-knee-arthroplasty-013",
                      "request":  {
                                      "method":  "PUT",
                                      "url":  "Encounter/enc-knee-arthroplasty-013"
                                  }
                  },
                  {
                      "resource":  {
                                       "id":  "proc-knee-arthroplasty-013",
                                       "code":  {
                                                    "coding":  [
                                                                   {
                                                                       "code":  "0SRC0JZ",
                                                                       "display":  "人工膝關節置換",
                                                                       "system":  "http://hl7.org/fhir/sid/icd-10-pcs"
                                                                   }
                                                               ]
                                                },
                                       "subject":  {
                                                       "reference":  "Patient/knee-arthroplasty-patient-013"
                                                   },
                                       "encounter":  {
                                                         "reference":  "Encounter/enc-knee-arthroplasty-013"
                                                     },
                                       "resourceType":  "Procedure",
                                       "performedDateTime":  "2025-11-20T10:00:00Z",
                                       "status":  "completed"
                                   },
                      "fullUrl":  "Procedure/proc-knee-arthroplasty-013",
                      "request":  {
                                      "method":  "PUT",
                                      "url":  "Procedure/proc-knee-arthroplasty-013"
                                  }
                  },
                  {
                      "resource":  {
                                       "resourceType":  "Condition",
                                       "encounter":  {
                                                         "reference":  "Encounter/enc-knee-arthroplasty-013"
                                                     },
                                       "code":  {
                                                    "coding":  [
                                                                   {
                                                                       "code":  "Z98.89",
                                                                       "display":  "術後正常恢復",
                                                                       "system":  "http://hl7.org/fhir/sid/icd-10-cm"
                                                                   }
                                                               ]
                                                },
                                       "id":  "cond-knee-arthroplasty-013",
                                       "subject":  {
                                                       "reference":  "Patient/knee-arthroplasty-patient-013"
                                                   }
                                   },
                      "fullUrl":  "Condition/cond-knee-arthroplasty-013",
                      "request":  {
                                      "method":  "PUT",
                                      "url":  "Condition/cond-knee-arthroplasty-013"
                                  }
                  },
                  {
                      "resource":  {
                                       "resourceType":  "Patient",
                                       "birthDate":  "1960-01-01",
                                       "id":  "knee-arthroplasty-patient-014",
                                       "gender":  "female"
                                   },
                      "fullUrl":  "Patient/knee-arthroplasty-patient-014",
                      "request":  {
                                      "method":  "PUT",
                                      "url":  "Patient/knee-arthroplasty-patient-014"
                                  }
                  },
                  {
                      "resource":  {
                                       "id":  "enc-knee-arthroplasty-014",
                                       "class":  {
                                                     "code":  "IMP",
                                                     "display":  "住院"
                                                 },
                                       "resourceType":  "Encounter",
                                       "subject":  {
                                                       "reference":  "Patient/knee-arthroplasty-patient-014"
                                                   },
                                       "period":  {
                                                      "start":  "2025-11-23T08:00:00Z",
                                                      "end":  "2025-11-23T20:00:00Z"
                                                  },
                                       "status":  "finished"
                                   },
                      "fullUrl":  "Encounter/enc-knee-arthroplasty-014",
                      "request":  {
                                      "method":  "PUT",
                                      "url":  "Encounter/enc-knee-arthroplasty-014"
                                  }
                  },
                  {
                      "resource":  {
                                       "id":  "proc-knee-arthroplasty-014",
                                       "code":  {
                                                    "coding":  [
                                                                   {
                                                                       "code":  "0SRC0JZ",
                                                                       "display":  "人工膝關節置換",
                                                                       "system":  "http://hl7.org/fhir/sid/icd-10-pcs"
                                                                   }
                                                               ]
                                                },
                                       "subject":  {
                                                       "reference":  "Patient/knee-arthroplasty-patient-014"
                                                   },
                                       "encounter":  {
                                                         "reference":  "Encounter/enc-knee-arthroplasty-014"
                                                     },
                                       "resourceType":  "Procedure",
                                       "performedDateTime":  "2025-11-23T10:00:00Z",
                                       "status":  "completed"
                                   },
                      "fullUrl":  "Procedure/proc-knee-arthroplasty-014",
                      "request":  {
                                      "method":  "PUT",
                                      "url":  "Procedure/proc-knee-arthroplasty-014"
                                  }
                  },
                  {
                      "resource":  {
                                       "resourceType":  "Condition",
                                       "encounter":  {
                                                         "reference":  "Encounter/enc-knee-arthroplasty-014"
                                                     },
                                       "code":  {
                                                    "coding":  [
                                                                   {
                                                                       "code":  "Z98.89",
                                                                       "display":  "術後正常恢復",
                                                                       "system":  "http://hl7.org/fhir/sid/icd-10-cm"
                                                                   }
                                                               ]
                                                },
                                       "id":  "cond-knee-arthroplasty-014",
                                       "subject":  {
                                                       "reference":  "Patient/knee-arthroplasty-patient-014"
                                                   }
                                   },
                      "fullUrl":  "Condition/cond-knee-arthroplasty-014",
                      "request":  {
                                      "method":  "PUT",
                                      "url":  "Condition/cond-knee-arthroplasty-014"
                                  }
                  },
                  {
                      "resource":  {
                                       "resourceType":  "Patient",
                                       "birthDate":  "1960-01-01",
                                       "id":  "knee-arthroplasty-patient-015",
                                       "gender":  "male"
                                   },
                      "fullUrl":  "Patient/knee-arthroplasty-patient-015",
                      "request":  {
                                      "method":  "PUT",
                                      "url":  "Patient/knee-arthroplasty-patient-015"
                                  }
                  },
                  {
                      "resource":  {
                                       "id":  "enc-knee-arthroplasty-015",
                                       "class":  {
                                                     "code":  "IMP",
                                                     "display":  "住院"
                                                 },
                                       "resourceType":  "Encounter",
                                       "subject":  {
                                                       "reference":  "Patient/knee-arthroplasty-patient-015"
                                                   },
                                       "period":  {
                                                      "start":  "2025-11-26T08:00:00Z",
                                                      "end":  "2025-11-26T20:00:00Z"
                                                  },
                                       "status":  "finished"
                                   },
                      "fullUrl":  "Encounter/enc-knee-arthroplasty-015",
                      "request":  {
                                      "method":  "PUT",
                                      "url":  "Encounter/enc-knee-arthroplasty-015"
                                  }
                  },
                  {
                      "resource":  {
                                       "id":  "proc-knee-arthroplasty-015",
                                       "code":  {
                                                    "coding":  [
                                                                   {
                                                                       "code":  "0SRC0JZ",
                                                                       "display":  "人工膝關節置換",
                                                                       "system":  "http://hl7.org/fhir/sid/icd-10-pcs"
                                                                   }
                                                               ]
                                                },
                                       "subject":  {
                                                       "reference":  "Patient/knee-arthroplasty-patient-015"
                                                   },
                                       "encounter":  {
                                                         "reference":  "Encounter/enc-knee-arthroplasty-015"
                                                     },
                                       "resourceType":  "Procedure",
                                       "performedDateTime":  "2025-11-26T10:00:00Z",
                                       "status":  "completed"
                                   },
                      "fullUrl":  "Procedure/proc-knee-arthroplasty-015",
                      "request":  {
                                      "method":  "PUT",
                                      "url":  "Procedure/proc-knee-arthroplasty-015"
                                  }
                  },
                  {
                      "resource":  {
                                       "resourceType":  "Condition",
                                       "encounter":  {
                                                         "reference":  "Encounter/enc-knee-arthroplasty-015"
                                                     },
                                       "code":  {
                                                    "coding":  [
                                                                   {
                                                                       "code":  "Z98.89",
                                                                       "display":  "術後正常恢復",
                                                                       "system":  "http://hl7.org/fhir/sid/icd-10-cm"
                                                                   }
                                                               ]
                                                },
                                       "id":  "cond-knee-arthroplasty-015",
                                       "subject":  {
                                                       "reference":  "Patient/knee-arthroplasty-patient-015"
                                                   }
                                   },
                      "fullUrl":  "Condition/cond-knee-arthroplasty-015",
                      "request":  {
                                      "method":  "PUT",
                                      "url":  "Condition/cond-knee-arthroplasty-015"
                                  }
                  },
                  {
                      "resource":  {
                                       "resourceType":  "Patient",
                                       "birthDate":  "1960-01-01",
                                       "id":  "knee-arthroplasty-patient-016",
                                       "gender":  "female"
                                   },
                      "fullUrl":  "Patient/knee-arthroplasty-patient-016",
                      "request":  {
                                      "method":  "PUT",
                                      "url":  "Patient/knee-arthroplasty-patient-016"
                                  }
                  },
                  {
                      "resource":  {
                                       "id":  "enc-knee-arthroplasty-016",
                                       "class":  {
                                                     "code":  "IMP",
                                                     "display":  "住院"
                                                 },
                                       "resourceType":  "Encounter",
                                       "subject":  {
                                                       "reference":  "Patient/knee-arthroplasty-patient-016"
                                                   },
                                       "period":  {
                                                      "start":  "2025-11-28T08:00:00Z",
                                                      "end":  "2025-11-28T20:00:00Z"
                                                  },
                                       "status":  "finished"
                                   },
                      "fullUrl":  "Encounter/enc-knee-arthroplasty-016",
                      "request":  {
                                      "method":  "PUT",
                                      "url":  "Encounter/enc-knee-arthroplasty-016"
                                  }
                  },
                  {
                      "resource":  {
                                       "id":  "proc-knee-arthroplasty-016",
                                       "code":  {
                                                    "coding":  [
                                                                   {
                                                                       "code":  "0SRC0JZ",
                                                                       "display":  "人工膝關節置換",
                                                                       "system":  "http://hl7.org/fhir/sid/icd-10-pcs"
                                                                   }
                                                               ]
                                                },
                                       "subject":  {
                                                       "reference":  "Patient/knee-arthroplasty-patient-016"
                                                   },
                                       "encounter":  {
                                                         "reference":  "Encounter/enc-knee-arthroplasty-016"
                                                     },
                                       "resourceType":  "Procedure",
                                       "performedDateTime":  "2025-11-28T10:00:00Z",
                                       "status":  "completed"
                                   },
                      "fullUrl":  "Procedure/proc-knee-arthroplasty-016",
                      "request":  {
                                      "method":  "PUT",
                                      "url":  "Procedure/proc-knee-arthroplasty-016"
                                  }
                  },
                  {
                      "resource":  {
                                       "resourceType":  "Condition",
                                       "encounter":  {
                                                         "reference":  "Encounter/enc-knee-arthroplasty-016"
                                                     },
                                       "code":  {
                                                    "coding":  [
                                                                   {
                                                                       "code":  "Z98.89",
                                                                       "display":  "術後正常恢復",
                                                                       "system":  "http://hl7.org/fhir/sid/icd-10-cm"
                                                                   }
                                                               ]
                                                },
                                       "id":  "cond-knee-arthroplasty-016",
                                       "subject":  {
                                                       "reference":  "Patient/knee-arthroplasty-patient-016"
                                                   }
                                   },
                      "fullUrl":  "Condition/cond-knee-arthroplasty-016",
                      "request":  {
                                      "method":  "PUT",
                                      "url":  "Condition/cond-knee-arthroplasty-016"
                                  }
                  },
                  {
                      "resource":  {
                                       "resourceType":  "Patient",
                                       "birthDate":  "1960-01-01",
                                       "id":  "knee-arthroplasty-patient-017",
                                       "gender":  "male"
                                   },
                      "fullUrl":  "Patient/knee-arthroplasty-patient-017",
                      "request":  {
                                      "method":  "PUT",
                                      "url":  "Patient/knee-arthroplasty-patient-017"
                                  }
                  },
                  {
                      "resource":  {
                                       "id":  "enc-knee-arthroplasty-017",
                                       "class":  {
                                                     "code":  "IMP",
                                                     "display":  "住院"
                                                 },
                                       "resourceType":  "Encounter",
                                       "subject":  {
                                                       "reference":  "Patient/knee-arthroplasty-patient-017"
                                                   },
                                       "period":  {
                                                      "start":  "2025-11-29T08:00:00Z",
                                                      "end":  "2025-11-29T20:00:00Z"
                                                  },
                                       "status":  "finished"
                                   },
                      "fullUrl":  "Encounter/enc-knee-arthroplasty-017",
                      "request":  {
                                      "method":  "PUT",
                                      "url":  "Encounter/enc-knee-arthroplasty-017"
                                  }
                  },
                  {
                      "resource":  {
                                       "id":  "proc-knee-arthroplasty-017",
                                       "code":  {
                                                    "coding":  [
                                                                   {
                                                                       "code":  "0SRC0JZ",
                                                                       "display":  "人工膝關節置換",
                                                                       "system":  "http://hl7.org/fhir/sid/icd-10-pcs"
                                                                   }
                                                               ]
                                                },
                                       "subject":  {
                                                       "reference":  "Patient/knee-arthroplasty-patient-017"
                                                   },
                                       "encounter":  {
                                                         "reference":  "Encounter/enc-knee-arthroplasty-017"
                                                     },
                                       "resourceType":  "Procedure",
                                       "performedDateTime":  "2025-11-29T10:00:00Z",
                                       "status":  "completed"
                                   },
                      "fullUrl":  "Procedure/proc-knee-arthroplasty-017",
                      "request":  {
                                      "method":  "PUT",
                                      "url":  "Procedure/proc-knee-arthroplasty-017"
                                  }
                  },
                  {
                      "resource":  {
                                       "resourceType":  "Condition",
                                       "encounter":  {
                                                         "reference":  "Encounter/enc-knee-arthroplasty-017"
                                                     },
                                       "code":  {
                                                    "coding":  [
                                                                   {
                                                                       "code":  "Z98.89",
                                                                       "display":  "術後正常恢復",
                                                                       "system":  "http://hl7.org/fhir/sid/icd-10-cm"
                                                                   }
                                                               ]
                                                },
                                       "id":  "cond-knee-arthroplasty-017",
                                       "subject":  {
                                                       "reference":  "Patient/knee-arthroplasty-patient-017"
                                                   }
                                   },
                      "fullUrl":  "Condition/cond-knee-arthroplasty-017",
                      "request":  {
                                      "method":  "PUT",
                                      "url":  "Condition/cond-knee-arthroplasty-017"
                                  }
                  },
                  {
                      "resource":  {
                                       "resourceType":  "Patient",
                                       "birthDate":  "1960-01-01",
                                       "id":  "knee-arthroplasty-patient-018",
                                       "gender":  "female"
                                   },
                      "fullUrl":  "Patient/knee-arthroplasty-patient-018",
                      "request":  {
                                      "method":  "PUT",
                                      "url":  "Patient/knee-arthroplasty-patient-018"
                                  }
                  },
                  {
                      "resource":  {
                                       "id":  "enc-knee-arthroplasty-018",
                                       "class":  {
                                                     "code":  "IMP",
                                                     "display":  "住院"
                                                 },
                                       "resourceType":  "Encounter",
                                       "subject":  {
                                                       "reference":  "Patient/knee-arthroplasty-patient-018"
                                                   },
                                       "period":  {
                                                      "start":  "2025-11-30T08:00:00Z",
                                                      "end":  "2025-11-30T20:00:00Z"
                                                  },
                                       "status":  "finished"
                                   },
                      "fullUrl":  "Encounter/enc-knee-arthroplasty-018",
                      "request":  {
                                      "method":  "PUT",
                                      "url":  "Encounter/enc-knee-arthroplasty-018"
                                  }
                  },
                  {
                      "resource":  {
                                       "id":  "proc-knee-arthroplasty-018",
                                       "code":  {
                                                    "coding":  [
                                                                   {
                                                                       "code":  "0SRC0JZ",
                                                                       "display":  "人工膝關節置換",
                                                                       "system":  "http://hl7.org/fhir/sid/icd-10-pcs"
                                                                   }
                                                               ]
                                                },
                                       "subject":  {
                                                       "reference":  "Patient/knee-arthroplasty-patient-018"
                                                   },
                                       "encounter":  {
                                                         "reference":  "Encounter/enc-knee-arthroplasty-018"
                                                     },
                                       "resourceType":  "Procedure",
                                       "performedDateTime":  "2025-11-30T10:00:00Z",
                                       "status":  "completed"
                                   },
                      "fullUrl":  "Procedure/proc-knee-arthroplasty-018",
                      "request":  {
                                      "method":  "PUT",
                                      "url":  "Procedure/proc-knee-arthroplasty-018"
                                  }
                  },
                  {
                      "resource":  {
                                       "resourceType":  "Condition",
                                       "encounter":  {
                                                         "reference":  "Encounter/enc-knee-arthroplasty-018"
                                                     },
                                       "code":  {
                                                    "coding":  [
                                                                   {
                                                                       "code":  "Z98.89",
                                                                       "display":  "術後正常恢復",
                                                                       "system":  "http://hl7.org/fhir/sid/icd-10-cm"
                                                                   }
                                                               ]
                                                },
                                       "id":  "cond-knee-arthroplasty-018",
                                       "subject":  {
                                                       "reference":  "Patient/knee-arthroplasty-patient-018"
                                                   }
                                   },
                      "fullUrl":  "Condition/cond-knee-arthroplasty-018",
                      "request":  {
                                      "method":  "PUT",
                                      "url":  "Condition/cond-knee-arthroplasty-018"
                                  }
                  },
                  {
                      "resource":  {
                                       "resourceType":  "Patient",
                                       "birthDate":  "1960-01-01",
                                       "id":  "knee-arthroplasty-patient-019",
                                       "gender":  "male"
                                   },
                      "fullUrl":  "Patient/knee-arthroplasty-patient-019",
                      "request":  {
                                      "method":  "PUT",
                                      "url":  "Patient/knee-arthroplasty-patient-019"
                                  }
                  },
                  {
                      "resource":  {
                                       "id":  "enc-knee-arthroplasty-019",
                                       "class":  {
                                                     "code":  "IMP",
                                                     "display":  "住院"
                                                 },
                                       "resourceType":  "Encounter",
                                       "subject":  {
                                                       "reference":  "Patient/knee-arthroplasty-patient-019"
                                                   },
                                       "period":  {
                                                      "start":  "2025-12-01T08:00:00Z",
                                                      "end":  "2025-12-01T20:00:00Z"
                                                  },
                                       "status":  "finished"
                                   },
                      "fullUrl":  "Encounter/enc-knee-arthroplasty-019",
                      "request":  {
                                      "method":  "PUT",
                                      "url":  "Encounter/enc-knee-arthroplasty-019"
                                  }
                  },
                  {
                      "resource":  {
                                       "id":  "proc-knee-arthroplasty-019",
                                       "code":  {
                                                    "coding":  [
                                                                   {
                                                                       "code":  "0SRC0JZ",
                                                                       "display":  "人工膝關節置換",
                                                                       "system":  "http://hl7.org/fhir/sid/icd-10-pcs"
                                                                   }
                                                               ]
                                                },
                                       "subject":  {
                                                       "reference":  "Patient/knee-arthroplasty-patient-019"
                                                   },
                                       "encounter":  {
                                                         "reference":  "Encounter/enc-knee-arthroplasty-019"
                                                     },
                                       "resourceType":  "Procedure",
                                       "performedDateTime":  "2025-12-01T10:00:00Z",
                                       "status":  "completed"
                                   },
                      "fullUrl":  "Procedure/proc-knee-arthroplasty-019",
                      "request":  {
                                      "method":  "PUT",
                                      "url":  "Procedure/proc-knee-arthroplasty-019"
                                  }
                  },
                  {
                      "resource":  {
                                       "resourceType":  "Condition",
                                       "encounter":  {
                                                         "reference":  "Encounter/enc-knee-arthroplasty-019"
                                                     },
                                       "code":  {
                                                    "coding":  [
                                                                   {
                                                                       "code":  "Z98.89",
                                                                       "display":  "術後正常恢復",
                                                                       "system":  "http://hl7.org/fhir/sid/icd-10-cm"
                                                                   }
                                                               ]
                                                },
                                       "id":  "cond-knee-arthroplasty-019",
                                       "subject":  {
                                                       "reference":  "Patient/knee-arthroplasty-patient-019"
                                                   }
                                   },
                      "fullUrl":  "Condition/cond-knee-arthroplasty-019",
                      "request":  {
                                      "method":  "PUT",
                                      "url":  "Condition/cond-knee-arthroplasty-019"
                                  }
                  }
              ],
    "type":  "transaction"
}
