{
  "resourceType": "Bundle",
  "type": "transaction",
  "entry": [
    {
      "fullUrl": "urn:uuid:patient-overlap-001",
      "resource": {
        "resourceType": "Patient",
        "id": "patient-overlap-001",
        "identifier": [
          {
            "system": "http://hospital.example.org/patients",
            "value": "OVERLAP-001"
          }
        ],
        "name": [
          {
            "family": "王",
            "given": ["小明"]
          }
        ],
        "gender": "male",
        "birthDate": "1965-03-15"
      },
      "request": {
        "method": "PUT",
        "url": "Patient/patient-overlap-001"
      }
    },
    {
      "fullUrl": "urn:uuid:encounter-overlap-001-1",
      "resource": {
        "resourceType": "Encounter",
        "id": "encounter-overlap-001-1",
        "status": "finished",
        "class": {
          "system": "http://terminology.hl7.org/CodeSystem/v3-ActCode",
          "code": "AMB",
          "display": "ambulatory"
        },
        "subject": {
          "reference": "Patient/patient-overlap-001"
        },
        "period": {
          "start": "2025-10-01T09:00:00Z",
          "end": "2025-10-01T09:30:00Z"
        }
      },
      "request": {
        "method": "PUT",
        "url": "Encounter/encounter-overlap-001-1"
      }
    },
    {
      "fullUrl": "urn:uuid:med-overlap-001-1",
      "resource": {
        "resourceType": "MedicationRequest",
        "id": "med-overlap-001-1",
        "status": "completed",
        "intent": "order",
        "medicationCodeableConcept": {
          "coding": [
            {
              "system": "http://www.whocc.no/atc",
              "code": "C09AA01",
              "display": "Captopril (降血壓藥)"
            }
          ]
        },
        "subject": {
          "reference": "Patient/patient-overlap-001"
        },
        "encounter": {
          "reference": "Encounter/encounter-overlap-001-1"
        },
        "authoredOn": "2025-10-01T09:15:00Z",
        "dosageInstruction": [
          {
            "timing": {
              "repeat": {
                "boundsPeriod": {
                  "start": "2025-10-01",
                  "end": "2025-10-31"
                }
              }
            }
          }
        ],
        "dispenseRequest": {
          "validityPeriod": {
            "start": "2025-10-01",
            "end": "2025-10-31"
          },
          "quantity": {
            "value": 30,
            "unit": "tablets"
          }
        }
      },
      "request": {
        "method": "PUT",
        "url": "MedicationRequest/med-overlap-001-1"
      }
    },
    {
      "fullUrl": "urn:uuid:encounter-overlap-001-2",
      "resource": {
        "resourceType": "Encounter",
        "id": "encounter-overlap-001-2",
        "status": "finished",
        "class": {
          "system": "http://terminology.hl7.org/CodeSystem/v3-ActCode",
          "code": "AMB",
          "display": "ambulatory"
        },
        "subject": {
          "reference": "Patient/patient-overlap-001"
        },
        "period": {
          "start": "2025-10-15T14:00:00Z",
          "end": "2025-10-15T14:30:00Z"
        }
      },
      "request": {
        "method": "PUT",
        "url": "Encounter/encounter-overlap-001-2"
      }
    },
    {
      "fullUrl": "urn:uuid:med-overlap-001-2",
      "resource": {
        "resourceType": "MedicationRequest",
        "id": "med-overlap-001-2",
        "status": "completed",
        "intent": "order",
        "medicationCodeableConcept": {
          "coding": [
            {
              "system": "http://www.whocc.no/atc",
              "code": "C09AA02",
              "display": "Enalapril (另一種降血壓藥)"
            }
          ]
        },
        "subject": {
          "reference": "Patient/patient-overlap-001"
        },
        "encounter": {
          "reference": "Encounter/encounter-overlap-001-2"
        },
        "authoredOn": "2025-10-15T14:15:00Z",
        "dosageInstruction": [
          {
            "timing": {
              "repeat": {
                "boundsPeriod": {
                  "start": "2025-10-15",
                  "end": "2025-11-14"
                }
              }
            }
          }
        ],
        "dispenseRequest": {
          "validityPeriod": {
            "start": "2025-10-15",
            "end": "2025-11-14"
          },
          "quantity": {
            "value": 30,
            "unit": "tablets"
          }
        }
      },
      "request": {
        "method": "PUT",
        "url": "MedicationRequest/med-overlap-001-2"
      }
    },
    {
      "fullUrl": "urn:uuid:patient-overlap-002",
      "resource": {
        "resourceType": "Patient",
        "id": "patient-overlap-002",
        "identifier": [
          {
            "system": "http://hospital.example.org/patients",
            "value": "OVERLAP-002"
          }
        ],
        "name": [
          {
            "family": "李",
            "given": ["美華"]
          }
        ],
        "gender": "female",
        "birthDate": "1958-07-22"
      },
      "request": {
        "method": "PUT",
        "url": "Patient/patient-overlap-002"
      }
    },
    {
      "fullUrl": "urn:uuid:encounter-overlap-002-1",
      "resource": {
        "resourceType": "Encounter",
        "id": "encounter-overlap-002-1",
        "status": "finished",
        "class": {
          "system": "http://terminology.hl7.org/CodeSystem/v3-ActCode",
          "code": "AMB",
          "display": "ambulatory"
        },
        "subject": {
          "reference": "Patient/patient-overlap-002"
        },
        "period": {
          "start": "2025-10-05T10:00:00Z",
          "end": "2025-10-05T10:30:00Z"
        }
      },
      "request": {
        "method": "PUT",
        "url": "Encounter/encounter-overlap-002-1"
      }
    },
    {
      "fullUrl": "urn:uuid:med-overlap-002-1",
      "resource": {
        "resourceType": "MedicationRequest",
        "id": "med-overlap-002-1",
        "status": "completed",
        "intent": "order",
        "medicationCodeableConcept": {
          "coding": [
            {
              "system": "http://www.whocc.no/atc",
              "code": "C09CA01",
              "display": "Losartan (降血壓藥)"
            }
          ]
        },
        "subject": {
          "reference": "Patient/patient-overlap-002"
        },
        "encounter": {
          "reference": "Encounter/encounter-overlap-002-1"
        },
        "authoredOn": "2025-10-05T10:15:00Z",
        "dosageInstruction": [
          {
            "timing": {
              "repeat": {
                "boundsPeriod": {
                  "start": "2025-10-05",
                  "end": "2025-11-04"
                }
              }
            }
          }
        ],
        "dispenseRequest": {
          "validityPeriod": {
            "start": "2025-10-05",
            "end": "2025-11-04"
          },
          "quantity": {
            "value": 30,
            "unit": "tablets"
          }
        }
      },
      "request": {
        "method": "PUT",
        "url": "MedicationRequest/med-overlap-002-1"
      }
    },
    {
      "fullUrl": "urn:uuid:encounter-overlap-002-2",
      "resource": {
        "resourceType": "Encounter",
        "id": "encounter-overlap-002-2",
        "status": "finished",
        "class": {
          "system": "http://terminology.hl7.org/CodeSystem/v3-ActCode",
          "code": "AMB",
          "display": "ambulatory"
        },
        "subject": {
          "reference": "Patient/patient-overlap-002"
        },
        "period": {
          "start": "2025-10-20T11:00:00Z",
          "end": "2025-10-20T11:30:00Z"
        }
      },
      "request": {
        "method": "PUT",
        "url": "Encounter/encounter-overlap-002-2"
      }
    },
    {
      "fullUrl": "urn:uuid:med-overlap-002-2",
      "resource": {
        "resourceType": "MedicationRequest",
        "id": "med-overlap-002-2",
        "status": "completed",
        "intent": "order",
        "medicationCodeableConcept": {
          "coding": [
            {
              "system": "http://www.whocc.no/atc",
              "code": "C08CA01",
              "display": "Amlodipine (另一種降血壓藥)"
            }
          ]
        },
        "subject": {
          "reference": "Patient/patient-overlap-002"
        },
        "encounter": {
          "reference": "Encounter/encounter-overlap-002-2"
        },
        "authoredOn": "2025-10-20T11:15:00Z",
        "dosageInstruction": [
          {
            "timing": {
              "repeat": {
                "boundsPeriod": {
                  "start": "2025-10-20",
                  "end": "2025-11-19"
                }
              }
            }
          }
        ],
        "dispenseRequest": {
          "validityPeriod": {
            "start": "2025-10-20",
            "end": "2025-11-19"
          },
          "quantity": {
            "value": 30,
            "unit": "tablets"
          }
        }
      },
      "request": {
        "method": "PUT",
        "url": "MedicationRequest/med-overlap-002-2"
      }
    },
    {
      "fullUrl": "urn:uuid:patient-overlap-003",
      "resource": {
        "resourceType": "Patient",
        "id": "patient-overlap-003",
        "identifier": [
          {
            "system": "http://hospital.example.org/patients",
            "value": "OVERLAP-003"
          }
        ],
        "name": [
          {
            "family": "陳",
            "given": ["建國"]
          }
        ],
        "gender": "male",
        "birthDate": "1970-11-08"
      },
      "request": {
        "method": "PUT",
        "url": "Patient/patient-overlap-003"
      }
    },
    {
      "fullUrl": "urn:uuid:encounter-overlap-003-1",
      "resource": {
        "resourceType": "Encounter",
        "id": "encounter-overlap-003-1",
        "status": "finished",
        "class": {
          "system": "http://terminology.hl7.org/CodeSystem/v3-ActCode",
          "code": "AMB",
          "display": "ambulatory"
        },
        "subject": {
          "reference": "Patient/patient-overlap-003"
        },
        "period": {
          "start": "2025-10-08T15:00:00Z",
          "end": "2025-10-08T15:30:00Z"
        }
      },
      "request": {
        "method": "PUT",
        "url": "Encounter/encounter-overlap-003-1"
      }
    },
    {
      "fullUrl": "urn:uuid:med-overlap-003-1",
      "resource": {
        "resourceType": "MedicationRequest",
        "id": "med-overlap-003-1",
        "status": "completed",
        "intent": "order",
        "medicationCodeableConcept": {
          "coding": [
            {
              "system": "http://www.whocc.no/atc",
              "code": "C07AB02",
              "display": "Metoprolol (降血壓藥)"
            }
          ]
        },
        "subject": {
          "reference": "Patient/patient-overlap-003"
        },
        "encounter": {
          "reference": "Encounter/encounter-overlap-003-1"
        },
        "authoredOn": "2025-10-08T15:15:00Z",
        "dosageInstruction": [
          {
            "timing": {
              "repeat": {
                "boundsPeriod": {
                  "start": "2025-10-08",
                  "end": "2025-11-07"
                }
              }
            }
          }
        ],
        "dispenseRequest": {
          "validityPeriod": {
            "start": "2025-10-08",
            "end": "2025-11-07"
          },
          "quantity": {
            "value": 30,
            "unit": "tablets"
          }
        }
      },
      "request": {
        "method": "PUT",
        "url": "MedicationRequest/med-overlap-003-1"
      }
    },
    {
      "fullUrl": "urn:uuid:encounter-overlap-003-2",
      "resource": {
        "resourceType": "Encounter",
        "id": "encounter-overlap-003-2",
        "status": "finished",
        "class": {
          "system": "http://terminology.hl7.org/CodeSystem/v3-ActCode",
          "code": "AMB",
          "display": "ambulatory"
        },
        "subject": {
          "reference": "Patient/patient-overlap-003"
        },
        "period": {
          "start": "2025-10-25T16:00:00Z",
          "end": "2025-10-25T16:30:00Z"
        }
      },
      "request": {
        "method": "PUT",
        "url": "Encounter/encounter-overlap-003-2"
      }
    },
    {
      "fullUrl": "urn:uuid:med-overlap-003-2",
      "resource": {
        "resourceType": "MedicationRequest",
        "id": "med-overlap-003-2",
        "status": "completed",
        "intent": "order",
        "medicationCodeableConcept": {
          "coding": [
            {
              "system": "http://www.whocc.no/atc",
              "code": "C03CA01",
              "display": "Furosemide (利尿劑類降血壓藥)"
            }
          ]
        },
        "subject": {
          "reference": "Patient/patient-overlap-003"
        },
        "encounter": {
          "reference": "Encounter/encounter-overlap-003-2"
        },
        "authoredOn": "2025-10-25T16:15:00Z",
        "dosageInstruction": [
          {
            "timing": {
              "repeat": {
                "boundsPeriod": {
                  "start": "2025-10-25",
                  "end": "2025-11-24"
                }
              }
            }
          }
        ],
        "dispenseRequest": {
          "validityPeriod": {
            "start": "2025-10-25",
            "end": "2025-11-24"
          },
          "quantity": {
            "value": 30,
            "unit": "tablets"
          }
        }
      },
      "request": {
        "method": "PUT",
        "url": "MedicationRequest/med-overlap-003-2"
      }
    }
  ]
}
