{
  "resourceType": "Bundle",
  "type": "transaction",
  "entry": [
    {
      "fullUrl": "urn:uuid:patient-prostate-1",
      "resource": {
        "resourceType": "Patient",
        "id": "PROSTATE-CROSS-P1",
        "gender": "male",
        "birthDate": "1955-03-18",
        "name": [{"text": "陳國華", "family": "Chen", "given": ["Guohua"]}]
      },
      "request": {"method": "PUT", "url": "Patient/PROSTATE-CROSS-P1"}
    },
    {
      "fullUrl": "urn:uuid:patient-prostate-2",
      "resource": {
        "resourceType": "Patient",
        "id": "PROSTATE-CROSS-P2",
        "gender": "male",
        "birthDate": "1960-08-25",
        "name": [{"text": "黃建成", "family": "Huang", "given": ["Jiancheng"]}]
      },
      "request": {"method": "PUT", "url": "Patient/PROSTATE-CROSS-P2"}
    },
    {
      "fullUrl": "urn:uuid:patient-prostate-3",
      "resource": {
        "resourceType": "Patient",
        "id": "PROSTATE-CROSS-P3",
        "gender": "male",
        "birthDate": "1958-12-10",
        "name": [{"text": "劉志偉", "family": "Liu", "given": ["Zhiwei"]}]
      },
      "request": {"method": "PUT", "url": "Patient/PROSTATE-CROSS-P3"}
    },
    {
      "fullUrl": "urn:uuid:enc-prostate-1a",
      "resource": {
        "resourceType": "Encounter",
        "id": "PROSTATE-E1A",
        "status": "finished",
        "class": {"system": "http://terminology.hl7.org/CodeSystem/v3-ActCode", "code": "AMB"},
        "subject": {"reference": "Patient/PROSTATE-CROSS-P1"},
        "serviceProvider": {"reference": "Organization/HOSPITAL-C"},
        "period": {"start": "2025-10-01T10:00:00+08:00", "end": "2025-10-01T10:30:00+08:00"}
      },
      "request": {"method": "PUT", "url": "Encounter/PROSTATE-E1A"}
    },
    {
      "fullUrl": "urn:uuid:med-prostate-1a",
      "resource": {
        "resourceType": "MedicationRequest",
        "id": "PROSTATE-M1A",
        "status": "completed",
        "intent": "order",
        "medicationCodeableConcept": {
          "coding": [{"system": "http://www.whocc.no/atc", "code": "G04CA02", "display": "Tamsulosin"}],
          "text": "活路利淨 Tamsulosin 0.2mg"
        },
        "subject": {"reference": "Patient/PROSTATE-CROSS-P1"},
        "encounter": {"reference": "Encounter/PROSTATE-E1A"},
        "authoredOn": "2025-10-01T10:00:00+08:00",
        "dosageInstruction": [{
          "timing": {"repeat": {"boundsPeriod": {"start": "2025-10-01", "end": "2025-10-28"}, "frequency": 1, "period": 1, "periodUnit": "d"}},
          "doseAndRate": [{"doseQuantity": {"value": 1, "unit": "capsule"}}]
        }],
        "dispenseRequest": {
          "validityPeriod": {"start": "2025-10-01", "end": "2025-10-28"},
          "quantity": {"value": 28, "unit": "capsule"},
          "expectedSupplyDuration": {"value": 28, "unit": "days", "system": "http://unitsofmeasure.org", "code": "d"}
        }
      },
      "request": {"method": "PUT", "url": "MedicationRequest/PROSTATE-M1A"}
    },
    {
      "fullUrl": "urn:uuid:enc-prostate-1b",
      "resource": {
        "resourceType": "Encounter",
        "id": "PROSTATE-E1B",
        "status": "finished",
        "class": {"system": "http://terminology.hl7.org/CodeSystem/v3-ActCode", "code": "AMB"},
        "subject": {"reference": "Patient/PROSTATE-CROSS-P1"},
        "serviceProvider": {"reference": "Organization/HOSPITAL-D"},
        "period": {"start": "2025-10-08T14:00:00+08:00", "end": "2025-10-08T14:30:00+08:00"}
      },
      "request": {"method": "PUT", "url": "Encounter/PROSTATE-E1B"}
    },
    {
      "fullUrl": "urn:uuid:med-prostate-1b",
      "resource": {
        "resourceType": "MedicationRequest",
        "id": "PROSTATE-M1B",
        "status": "completed",
        "intent": "order",
        "medicationCodeableConcept": {
          "coding": [{"system": "http://www.whocc.no/atc", "code": "G04CB01", "display": "Finasteride"}],
          "text": "柔沛 Finasteride 5mg"
        },
        "subject": {"reference": "Patient/PROSTATE-CROSS-P1"},
        "encounter": {"reference": "Encounter/PROSTATE-E1B"},
        "authoredOn": "2025-10-08T14:00:00+08:00",
        "dosageInstruction": [{
          "timing": {"repeat": {"boundsPeriod": {"start": "2025-10-08", "end": "2025-11-04"}, "frequency": 1, "period": 1, "periodUnit": "d"}},
          "doseAndRate": [{"doseQuantity": {"value": 1, "unit": "tablet"}}]
        }],
        "dispenseRequest": {
          "validityPeriod": {"start": "2025-10-08", "end": "2025-11-04"},
          "quantity": {"value": 28, "unit": "tablet"},
          "expectedSupplyDuration": {"value": 28, "unit": "days", "system": "http://unitsofmeasure.org", "code": "d"}
        }
      },
      "request": {"method": "PUT", "url": "MedicationRequest/PROSTATE-M1B"}
    },
    {
      "fullUrl": "urn:uuid:enc-prostate-2a",
      "resource": {
        "resourceType": "Encounter",
        "id": "PROSTATE-E2A",
        "status": "finished",
        "class": {"system": "http://terminology.hl7.org/CodeSystem/v3-ActCode", "code": "AMB"},
        "subject": {"reference": "Patient/PROSTATE-CROSS-P2"},
        "serviceProvider": {"reference": "Organization/HOSPITAL-C"},
        "period": {"start": "2025-10-03T09:00:00+08:00", "end": "2025-10-03T09:30:00+08:00"}
      },
      "request": {"method": "PUT", "url": "Encounter/PROSTATE-E2A"}
    },
    {
      "fullUrl": "urn:uuid:med-prostate-2a",
      "resource": {
        "resourceType": "MedicationRequest",
        "id": "PROSTATE-M2A",
        "status": "completed",
        "intent": "order",
        "medicationCodeableConcept": {
          "coding": [{"system": "http://www.whocc.no/atc", "code": "G04CA04", "display": "Doxazosin"}],
          "text": "可迅 Doxazosin 4mg"
        },
        "subject": {"reference": "Patient/PROSTATE-CROSS-P2"},
        "encounter": {"reference": "Encounter/PROSTATE-E2A"},
        "authoredOn": "2025-10-03T09:00:00+08:00",
        "dosageInstruction": [{
          "timing": {"repeat": {"boundsPeriod": {"start": "2025-10-03", "end": "2025-10-30"}, "frequency": 1, "period": 1, "periodUnit": "d"}},
          "doseAndRate": [{"doseQuantity": {"value": 1, "unit": "tablet"}}]
        }],
        "dispenseRequest": {
          "validityPeriod": {"start": "2025-10-03", "end": "2025-10-30"},
          "quantity": {"value": 28, "unit": "tablet"},
          "expectedSupplyDuration": {"value": 28, "unit": "days", "system": "http://unitsofmeasure.org", "code": "d"}
        }
      },
      "request": {"method": "PUT", "url": "MedicationRequest/PROSTATE-M2A"}
    },
    {
      "fullUrl": "urn:uuid:enc-prostate-2b",
      "resource": {
        "resourceType": "Encounter",
        "id": "PROSTATE-E2B",
        "status": "finished",
        "class": {"system": "http://terminology.hl7.org/CodeSystem/v3-ActCode", "code": "AMB"},
        "subject": {"reference": "Patient/PROSTATE-CROSS-P2"},
        "serviceProvider": {"reference": "Organization/HOSPITAL-D"},
        "period": {"start": "2025-10-10T11:00:00+08:00", "end": "2025-10-10T11:30:00+08:00"}
      },
      "request": {"method": "PUT", "url": "Encounter/PROSTATE-E2B"}
    },
    {
      "fullUrl": "urn:uuid:med-prostate-2b",
      "resource": {
        "resourceType": "MedicationRequest",
        "id": "PROSTATE-M2B",
        "status": "completed",
        "intent": "order",
        "medicationCodeableConcept": {
          "coding": [{"system": "http://www.whocc.no/atc", "code": "G04CB02", "display": "Dutasteride"}],
          "text": "適尿通 Dutasteride 0.5mg"
        },
        "subject": {"reference": "Patient/PROSTATE-CROSS-P2"},
        "encounter": {"reference": "Encounter/PROSTATE-E2B"},
        "authoredOn": "2025-10-10T11:00:00+08:00",
        "dosageInstruction": [{
          "timing": {"repeat": {"boundsPeriod": {"start": "2025-10-10", "end": "2025-11-06"}, "frequency": 1, "period": 1, "periodUnit": "d"}},
          "doseAndRate": [{"doseQuantity": {"value": 1, "unit": "capsule"}}]
        }],
        "dispenseRequest": {
          "validityPeriod": {"start": "2025-10-10", "end": "2025-11-06"},
          "quantity": {"value": 28, "unit": "capsule"},
          "expectedSupplyDuration": {"value": 28, "unit": "days", "system": "http://unitsofmeasure.org", "code": "d"}
        }
      },
      "request": {"method": "PUT", "url": "MedicationRequest/PROSTATE-M2B"}
    },
    {
      "fullUrl": "urn:uuid:enc-prostate-3a",
      "resource": {
        "resourceType": "Encounter",
        "id": "PROSTATE-E3A",
        "status": "finished",
        "class": {"system": "http://terminology.hl7.org/CodeSystem/v3-ActCode", "code": "AMB"},
        "subject": {"reference": "Patient/PROSTATE-CROSS-P3"},
        "serviceProvider": {"reference": "Organization/HOSPITAL-C"},
        "period": {"start": "2025-10-05T15:00:00+08:00", "end": "2025-10-05T15:30:00+08:00"}
      },
      "request": {"method": "PUT", "url": "Encounter/PROSTATE-E3A"}
    },
    {
      "fullUrl": "urn:uuid:med-prostate-3a",
      "resource": {
        "resourceType": "MedicationRequest",
        "id": "PROSTATE-M3A",
        "status": "completed",
        "intent": "order",
        "medicationCodeableConcept": {
          "coding": [{"system": "http://www.whocc.no/atc", "code": "G04CA03", "display": "Terazosin"}],
          "text": "可迅 Terazosin 2mg"
        },
        "subject": {"reference": "Patient/PROSTATE-CROSS-P3"},
        "encounter": {"reference": "Encounter/PROSTATE-E3A"},
        "authoredOn": "2025-10-05T15:00:00+08:00",
        "dosageInstruction": [{
          "timing": {"repeat": {"boundsPeriod": {"start": "2025-10-05", "end": "2025-11-01"}, "frequency": 1, "period": 1, "periodUnit": "d"}},
          "doseAndRate": [{"doseQuantity": {"value": 1, "unit": "tablet"}}]
        }],
        "dispenseRequest": {
          "validityPeriod": {"start": "2025-10-05", "end": "2025-11-01"},
          "quantity": {"value": 28, "unit": "tablet"},
          "expectedSupplyDuration": {"value": 28, "unit": "days", "system": "http://unitsofmeasure.org", "code": "d"}
        }
      },
      "request": {"method": "PUT", "url": "MedicationRequest/PROSTATE-M3A"}
    },
    {
      "fullUrl": "urn:uuid:enc-prostate-3b",
      "resource": {
        "resourceType": "Encounter",
        "id": "PROSTATE-E3B",
        "status": "finished",
        "class": {"system": "http://terminology.hl7.org/CodeSystem/v3-ActCode", "code": "AMB"},
        "subject": {"reference": "Patient/PROSTATE-CROSS-P3"},
        "serviceProvider": {"reference": "Organization/HOSPITAL-D"},
        "period": {"start": "2025-10-12T16:00:00+08:00", "end": "2025-10-12T16:30:00+08:00"}
      },
      "request": {"method": "PUT", "url": "Encounter/PROSTATE-E3B"}
    },
    {
      "fullUrl": "urn:uuid:med-prostate-3b",
      "resource": {
        "resourceType": "MedicationRequest",
        "id": "PROSTATE-M3B",
        "status": "completed",
        "intent": "order",
        "medicationCodeableConcept": {
          "coding": [{"system": "http://www.whocc.no/atc", "code": "G04CA02", "display": "Tamsulosin"}],
          "text": "活路利淨 Tamsulosin 0.2mg"
        },
        "subject": {"reference": "Patient/PROSTATE-CROSS-P3"},
        "encounter": {"reference": "Encounter/PROSTATE-E3B"},
        "authoredOn": "2025-10-12T16:00:00+08:00",
        "dosageInstruction": [{
          "timing": {"repeat": {"boundsPeriod": {"start": "2025-10-12", "end": "2025-11-08"}, "frequency": 1, "period": 1, "periodUnit": "d"}},
          "doseAndRate": [{"doseQuantity": {"value": 1, "unit": "capsule"}}]
        }],
        "dispenseRequest": {
          "validityPeriod": {"start": "2025-10-12", "end": "2025-11-08"},
          "quantity": {"value": 28, "unit": "capsule"},
          "expectedSupplyDuration": {"value": 28, "unit": "days", "system": "http://unitsofmeasure.org", "code": "d"}
        }
      },
      "request": {"method": "PUT", "url": "MedicationRequest/PROSTATE-M3B"}
    }
  ]
}
