{
  "resourceType": "Bundle",
  "type": "transaction",
  "entry": [
    {
      "fullUrl": "urn:uuid:ami-patient-1",
      "resource": {
        "resourceType": "Patient",
        "id": "AMI-DEATH-P1-2025Q4",
        "identifier": [
          {
            "system": "http://www.moi.gov.tw/",
            "value": "A123456789"
          }
        ],
        "name": [
          {
            "family": "王",
            "given": ["大明"]
          }
        ],
        "gender": "male",
        "birthDate": "1955-03-15",
        "deceasedDateTime": "2025-10-16T14:45:00+08:00",
        "address": [
          {
            "city": "台北市",
            "district": "中正區"
          }
        ]
      },
      "request": {
        "method": "PUT",
        "url": "Patient/AMI-DEATH-P1-2025Q4"
      }
    },
    {
      "fullUrl": "urn:uuid:ami-encounter-1",
      "resource": {
        "resourceType": "Encounter",
        "id": "AMI-DEATH-E1-2025Q4",
        "status": "finished",
        "class": {
          "system": "http://terminology.hl7.org/CodeSystem/v3-ActCode",
          "code": "IMP",
          "display": "inpatient encounter"
        },
        "subject": {
          "reference": "Patient/AMI-DEATH-P1-2025Q4"
        },
        "period": {
          "start": "2025-10-15T08:30:00+08:00",
          "end": "2025-10-16T14:45:00+08:00"
        },
        "extension": [
          {
            "url": "http://www.nhi.gov.tw/fhir/StructureDefinition/tran-code",
            "valueString": "4"
          }
        ],
        "hospitalization": {
          "admitSource": {
            "coding": [
              {
                "system": "http://terminology.hl7.org/CodeSystem/admit-source",
                "code": "emd",
                "display": "From accident/emergency department"
              }
            ]
          },
          "dischargeDisposition": {
            "coding": [
              {
                "system": "http://terminology.hl7.org/CodeSystem/discharge-disposition",
                "code": "exp",
                "display": "Expired"
              }
            ],
            "text": "死亡"
          }
        }
      },
      "request": {
        "method": "PUT",
        "url": "Encounter/AMI-DEATH-E1-2025Q4"
      }
    },
    {
      "fullUrl": "urn:uuid:ami-condition-1",
      "resource": {
        "resourceType": "Condition",
        "id": "AMI-DEATH-C1-2025Q4",
        "clinicalStatus": {
          "coding": [
            {
              "system": "http://terminology.hl7.org/CodeSystem/condition-clinical",
              "code": "active"
            }
          ]
        },
        "verificationStatus": {
          "coding": [
            {
              "system": "http://terminology.hl7.org/CodeSystem/condition-ver-status",
              "code": "confirmed"
            }
          ]
        },
        "code": {
          "coding": [
            {
              "system": "http://hl7.org/fhir/sid/icd-10-cm",
              "code": "I21.9",
              "display": "Acute myocardial infarction, unspecified"
            },
            {
              "system": "http://www.icd10data.com/icd10pcs",
              "code": "16620",
              "display": "急性心肌梗塞"
            }
          ],
          "text": "急性心肌梗塞"
        },
        "subject": {
          "reference": "Patient/AMI-DEATH-P1-2025Q4"
        },
        "encounter": {
          "reference": "Encounter/AMI-DEATH-E1-2025Q4"
        },
        "onsetDateTime": "2025-10-15T07:00:00+08:00",
        "recordedDate": "2025-10-15T08:45:00+08:00"
      },
      "request": {
        "method": "PUT",
        "url": "Condition/AMI-DEATH-C1-2025Q4"
      }
    },
    {
      "fullUrl": "urn:uuid:ami-observation-death-1",
      "resource": {
        "resourceType": "Observation",
        "id": "AMI-DEATH-OBS1-2025Q4",
        "status": "final",
        "category": [
          {
            "coding": [
              {
                "system": "http://terminology.hl7.org/CodeSystem/observation-category",
                "code": "exam",
                "display": "Exam"
              }
            ]
          }
        ],
        "code": {
          "coding": [
            {
              "system": "http://loinc.org",
              "code": "69453-9",
              "display": "Cause of death"
            }
          ],
          "text": "死因"
        },
        "subject": {
          "reference": "Patient/AMI-DEATH-P1-2025Q4"
        },
        "encounter": {
          "reference": "Encounter/AMI-DEATH-E1-2025Q4"
        },
        "effectiveDateTime": "2025-10-16T14:45:00+08:00",
        "valueCodeableConcept": {
          "coding": [
            {
              "system": "http://hl7.org/fhir/sid/icd-10-cm",
              "code": "I21.9",
              "display": "Acute myocardial infarction"
            }
          ],
          "text": "急性心肌梗塞致死"
        }
      },
      "request": {
        "method": "PUT",
        "url": "Observation/AMI-DEATH-OBS1-2025Q4"
      }
    },
    {
      "fullUrl": "urn:uuid:ami-patient-2",
      "resource": {
        "resourceType": "Patient",
        "id": "AMI-DEATH-P2-2025Q4",
        "identifier": [
          {
            "system": "http://www.moi.gov.tw/",
            "value": "B234567890"
          }
        ],
        "name": [
          {
            "family": "李",
            "given": ["美華"]
          }
        ],
        "gender": "female",
        "birthDate": "1962-07-22",
        "deceasedDateTime": "2025-11-09T03:15:00+08:00",
        "address": [
          {
            "city": "新北市",
            "district": "板橋區"
          }
        ]
      },
      "request": {
        "method": "PUT",
        "url": "Patient/AMI-DEATH-P2-2025Q4"
      }
    },
    {
      "fullUrl": "urn:uuid:ami-encounter-2",
      "resource": {
        "resourceType": "Encounter",
        "id": "AMI-DEATH-E2-2025Q4",
        "status": "finished",
        "class": {
          "system": "http://terminology.hl7.org/CodeSystem/v3-ActCode",
          "code": "IMP",
          "display": "inpatient encounter"
        },
        "subject": {
          "reference": "Patient/AMI-DEATH-P2-2025Q4"
        },
        "period": {
          "start": "2025-11-08T02:45:00+08:00",
          "end": "2025-11-09T03:15:00+08:00"
        },
        "extension": [
          {
            "url": "http://www.nhi.gov.tw/fhir/StructureDefinition/tran-code",
            "valueString": "4"
          }
        ],
        "hospitalization": {
          "admitSource": {
            "coding": [
              {
                "system": "http://terminology.hl7.org/CodeSystem/admit-source",
                "code": "emd",
                "display": "From accident/emergency department"
              }
            ]
          },
          "dischargeDisposition": {
            "coding": [
              {
                "system": "http://terminology.hl7.org/CodeSystem/discharge-disposition",
                "code": "exp",
                "display": "Expired"
              }
            ],
            "text": "死亡"
          }
        }
      },
      "request": {
        "method": "PUT",
        "url": "Encounter/AMI-DEATH-E2-2025Q4"
      }
    },
    {
      "fullUrl": "urn:uuid:ami-condition-2",
      "resource": {
        "resourceType": "Condition",
        "id": "AMI-DEATH-C2-2025Q4",
        "clinicalStatus": {
          "coding": [
            {
              "system": "http://terminology.hl7.org/CodeSystem/condition-clinical",
              "code": "active"
            }
          ]
        },
        "verificationStatus": {
          "coding": [
            {
              "system": "http://terminology.hl7.org/CodeSystem/condition-ver-status",
              "code": "confirmed"
            }
          ]
        },
        "code": {
          "coding": [
            {
              "system": "http://hl7.org/fhir/sid/icd-10-cm",
              "code": "I21.0",
              "display": "ST elevation myocardial infarction of anterior wall"
            },
            {
              "system": "http://www.icd10data.com/icd10pcs",
              "code": "16620",
              "display": "急性心肌梗塞"
            }
          ],
          "text": "急性前壁心肌梗塞"
        },
        "subject": {
          "reference": "Patient/AMI-DEATH-P2-2025Q4"
        },
        "encounter": {
          "reference": "Encounter/AMI-DEATH-E2-2025Q4"
        },
        "onsetDateTime": "2025-11-08T13:00:00+08:00",
        "recordedDate": "2025-11-08T14:35:00+08:00"
      },
      "request": {
        "method": "PUT",
        "url": "Condition/AMI-DEATH-C2-2025Q4"
      }
    },
    {
      "fullUrl": "urn:uuid:ami-observation-death-2",
      "resource": {
        "resourceType": "Observation",
        "id": "AMI-DEATH-OBS2-2025Q4",
        "status": "final",
        "category": [
          {
            "coding": [
              {
                "system": "http://terminology.hl7.org/CodeSystem/observation-category",
                "code": "exam",
                "display": "Exam"
              }
            ]
          }
        ],
        "code": {
          "coding": [
            {
              "system": "http://loinc.org",
              "code": "69453-9",
              "display": "Cause of death"
            }
          ],
          "text": "死因"
        },
        "subject": {
          "reference": "Patient/AMI-DEATH-P2-2025Q4"
        },
        "encounter": {
          "reference": "Encounter/AMI-DEATH-E2-2025Q4"
        },
        "effectiveDateTime": "2025-11-09T03:15:00+08:00",
        "valueCodeableConcept": {
          "coding": [
            {
              "system": "http://hl7.org/fhir/sid/icd-10-cm",
              "code": "I21.0",
              "display": "ST elevation myocardial infarction"
            }
          ],
          "text": "急性心肌梗塞致死"
        }
      },
      "request": {
        "method": "PUT",
        "url": "Observation/AMI-DEATH-OBS2-2025Q4"
      }
    },
    {
      "fullUrl": "urn:uuid:ami-patient-3",
      "resource": {
        "resourceType": "Patient",
        "id": "AMI-DEATH-P3-2025Q4",
        "identifier": [
          {
            "system": "http://www.moi.gov.tw/",
            "value": "C345678901"
          }
        ],
        "name": [
          {
            "family": "陳",
            "given": ["志強"]
          }
        ],
        "gender": "male",
        "birthDate": "1948-11-30",
        "deceasedDateTime": "2025-12-02T08:20:00+08:00",
        "address": [
          {
            "city": "台中市",
            "district": "西屯區"
          }
        ]
      },
      "request": {
        "method": "PUT",
        "url": "Patient/AMI-DEATH-P3-2025Q4"
      }
    },
    {
      "fullUrl": "urn:uuid:ami-encounter-3",
      "resource": {
        "resourceType": "Encounter",
        "id": "AMI-DEATH-E3-2025Q4",
        "status": "finished",
        "class": {
          "system": "http://terminology.hl7.org/CodeSystem/v3-ActCode",
          "code": "IMP",
          "display": "inpatient encounter"
        },
        "subject": {
          "reference": "Patient/AMI-DEATH-P3-2025Q4"
        },
        "period": {
          "start": "2025-12-01T06:20:00+08:00",
          "end": "2025-12-02T08:20:00+08:00"
        },
        "extension": [
          {
            "url": "http://www.nhi.gov.tw/fhir/StructureDefinition/tran-code",
            "valueString": "4"
          }
        ],
        "hospitalization": {
          "admitSource": {
            "coding": [
              {
                "system": "http://terminology.hl7.org/CodeSystem/admit-source",
                "code": "emd",
                "display": "From accident/emergency department"
              }
            ]
          },
          "dischargeDisposition": {
            "coding": [
              {
                "system": "http://terminology.hl7.org/CodeSystem/discharge-disposition",
                "code": "exp",
                "display": "Expired"
              }
            ],
            "text": "死亡"
          }
        }
      },
      "request": {
        "method": "PUT",
        "url": "Encounter/AMI-DEATH-E3-2025Q4"
      }
    },
    {
      "fullUrl": "urn:uuid:ami-condition-3",
      "resource": {
        "resourceType": "Condition",
        "id": "AMI-DEATH-C3-2025Q4",
        "clinicalStatus": {
          "coding": [
            {
              "system": "http://terminology.hl7.org/CodeSystem/condition-clinical",
              "code": "active"
            }
          ]
        },
        "verificationStatus": {
          "coding": [
            {
              "system": "http://terminology.hl7.org/CodeSystem/condition-ver-status",
              "code": "confirmed"
            }
          ]
        },
        "code": {
          "coding": [
            {
              "system": "http://hl7.org/fhir/sid/icd-10-cm",
              "code": "I21.4",
              "display": "Non-ST elevation myocardial infarction"
            },
            {
              "system": "http://www.icd10data.com/icd10pcs",
              "code": "16620",
              "display": "急性心肌梗塞"
            }
          ],
          "text": "非ST段上升型心肌梗塞"
        },
        "subject": {
          "reference": "Patient/AMI-DEATH-P3-2025Q4"
        },
        "encounter": {
          "reference": "Encounter/AMI-DEATH-E3-2025Q4"
        },
        "onsetDateTime": "2025-12-01T18:30:00+08:00",
        "recordedDate": "2025-12-01T20:00:00+08:00"
      },
      "request": {
        "method": "PUT",
        "url": "Condition/AMI-DEATH-C3-2025Q4"
      }
    },
    {
      "fullUrl": "urn:uuid:ami-observation-death-3",
      "resource": {
        "resourceType": "Observation",
        "id": "AMI-DEATH-OBS3-2025Q4",
        "status": "final",
        "category": [
          {
            "coding": [
              {
                "system": "http://terminology.hl7.org/CodeSystem/observation-category",
                "code": "exam",
                "display": "Exam"
              }
            ]
          }
        ],
        "code": {
          "coding": [
            {
              "system": "http://loinc.org",
              "code": "69453-9",
              "display": "Cause of death"
            }
          ],
          "text": "死因"
        },
        "subject": {
          "reference": "Patient/AMI-DEATH-P3-2025Q4"
        },
        "encounter": {
          "reference": "Encounter/AMI-DEATH-E3-2025Q4"
        },
        "effectiveDateTime": "2025-12-02T08:20:00+08:00",
        "valueCodeableConcept": {
          "coding": [
            {
              "system": "http://hl7.org/fhir/sid/icd-10-cm",
              "code": "I21.4",
              "display": "Non-ST elevation myocardial infarction"
            }
          ],
          "text": "急性心肌梗塞致死"
        }
      },
      "request": {
        "method": "PUT",
        "url": "Observation/AMI-DEATH-OBS3-2025Q4"
      }
    }
  ]
}
