{
  "resourceType": "Bundle",
  "type": "transaction",
  "entry": [
    {
      "fullUrl": "urn:uuid:patient-antidep-1",
      "resource": {
        "resourceType": "Patient",
        "id": "ANTIDEP-CROSS-P1",
        "gender": "female",
        "birthDate": "1970-04-18",
        "name": [{"text": "趙淑華", "family": "Zhao", "given": ["Shuhua"]}]
      },
      "request": {"method": "PUT", "url": "Patient/ANTIDEP-CROSS-P1"}
    },
    {
      "fullUrl": "urn:uuid:patient-antidep-2",
      "resource": {
        "resourceType": "Patient",
        "id": "ANTIDEP-CROSS-P2",
        "gender": "male",
        "birthDate": "1968-09-22",
        "name": [{"text": "孫志偉", "family": "Sun", "given": ["Zhiwei"]}]
      },
      "request": {"method": "PUT", "url": "Patient/ANTIDEP-CROSS-P2"}
    },
    {
      "fullUrl": "urn:uuid:patient-antidep-3",
      "resource": {
        "resourceType": "Patient",
        "id": "ANTIDEP-CROSS-P3",
        "gender": "female",
        "birthDate": "1972-12-05",
        "name": [{"text": "周美玲", "family": "Zhou", "given": ["Meiling"]}]
      },
      "request": {"method": "PUT", "url": "Patient/ANTIDEP-CROSS-P3"}
    },
    {
      "fullUrl": "urn:uuid:enc-antidep-1a",
      "resource": {
        "resourceType": "Encounter",
        "id": "ANTIDEP-E1A",
        "status": "finished",
        "class": {"system": "http://terminology.hl7.org/CodeSystem/v3-ActCode", "code": "AMB"},
        "subject": {"reference": "Patient/ANTIDEP-CROSS-P1"},
        "serviceProvider": {"reference": "Organization/HOSPITAL-C"},
        "period": {"start": "2025-10-02T09:00:00+08:00", "end": "2025-10-02T09:30:00+08:00"}
      },
      "request": {"method": "PUT", "url": "Encounter/ANTIDEP-E1A"}
    },
    {
      "fullUrl": "urn:uuid:med-antidep-1a",
      "resource": {
        "resourceType": "MedicationRequest",
        "id": "ANTIDEP-M1A",
        "status": "completed",
        "intent": "order",
        "medicationCodeableConcept": {
          "coding": [{"system": "http://www.whocc.no/atc", "code": "N06AB03", "display": "Fluoxetine"}],
          "text": "百憂解 Fluoxetine 20mg"
        },
        "subject": {"reference": "Patient/ANTIDEP-CROSS-P1"},
        "encounter": {"reference": "Encounter/ANTIDEP-E1A"},
        "authoredOn": "2025-10-02T09:00:00+08:00",
        "dosageInstruction": [{
          "timing": {"repeat": {"boundsPeriod": {"start": "2025-10-02", "end": "2025-10-29"}, "frequency": 1, "period": 1, "periodUnit": "d"}},
          "doseAndRate": [{"doseQuantity": {"value": 1, "unit": "capsule"}}]
        }],
        "dispenseRequest": {
          "validityPeriod": {"start": "2025-10-02", "end": "2025-10-29"},
          "quantity": {"value": 28, "unit": "capsule"},
          "expectedSupplyDuration": {"value": 28, "unit": "days", "system": "http://unitsofmeasure.org", "code": "d"}
        }
      },
      "request": {"method": "PUT", "url": "MedicationRequest/ANTIDEP-M1A"}
    },
    {
      "fullUrl": "urn:uuid:enc-antidep-1b",
      "resource": {
        "resourceType": "Encounter",
        "id": "ANTIDEP-E1B",
        "status": "finished",
        "class": {"system": "http://terminology.hl7.org/CodeSystem/v3-ActCode", "code": "AMB"},
        "subject": {"reference": "Patient/ANTIDEP-CROSS-P1"},
        "serviceProvider": {"reference": "Organization/HOSPITAL-D"},
        "period": {"start": "2025-10-09T14:00:00+08:00", "end": "2025-10-09T14:30:00+08:00"}
      },
      "request": {"method": "PUT", "url": "Encounter/ANTIDEP-E1B"}
    },
    {
      "fullUrl": "urn:uuid:med-antidep-1b",
      "resource": {
        "resourceType": "MedicationRequest",
        "id": "ANTIDEP-M1B",
        "status": "completed",
        "intent": "order",
        "medicationCodeableConcept": {
          "coding": [{"system": "http://www.whocc.no/atc", "code": "N06AB06", "display": "Sertraline"}],
          "text": "樂復得 Sertraline 50mg"
        },
        "subject": {"reference": "Patient/ANTIDEP-CROSS-P1"},
        "encounter": {"reference": "Encounter/ANTIDEP-E1B"},
        "authoredOn": "2025-10-09T14:00:00+08:00",
        "dosageInstruction": [{
          "timing": {"repeat": {"boundsPeriod": {"start": "2025-10-09", "end": "2025-11-05"}, "frequency": 1, "period": 1, "periodUnit": "d"}},
          "doseAndRate": [{"doseQuantity": {"value": 1, "unit": "tablet"}}]
        }],
        "dispenseRequest": {
          "validityPeriod": {"start": "2025-10-09", "end": "2025-11-05"},
          "quantity": {"value": 28, "unit": "tablet"},
          "expectedSupplyDuration": {"value": 28, "unit": "days", "system": "http://unitsofmeasure.org", "code": "d"}
        }
      },
      "request": {"method": "PUT", "url": "MedicationRequest/ANTIDEP-M1B"}
    },
    {
      "fullUrl": "urn:uuid:enc-antidep-2a",
      "resource": {
        "resourceType": "Encounter",
        "id": "ANTIDEP-E2A",
        "status": "finished",
        "class": {"system": "http://terminology.hl7.org/CodeSystem/v3-ActCode", "code": "AMB"},
        "subject": {"reference": "Patient/ANTIDEP-CROSS-P2"},
        "serviceProvider": {"reference": "Organization/HOSPITAL-C"},
        "period": {"start": "2025-10-04T10:00:00+08:00", "end": "2025-10-04T10:30:00+08:00"}
      },
      "request": {"method": "PUT", "url": "Encounter/ANTIDEP-E2A"}
    },
    {
      "fullUrl": "urn:uuid:med-antidep-2a",
      "resource": {
        "resourceType": "MedicationRequest",
        "id": "ANTIDEP-M2A",
        "status": "completed",
        "intent": "order",
        "medicationCodeableConcept": {
          "coding": [{"system": "http://www.whocc.no/atc", "code": "N06AB10", "display": "Escitalopram"}],
          "text": "立普能 Escitalopram 10mg"
        },
        "subject": {"reference": "Patient/ANTIDEP-CROSS-P2"},
        "encounter": {"reference": "Encounter/ANTIDEP-E2A"},
        "authoredOn": "2025-10-04T10:00:00+08:00",
        "dosageInstruction": [{
          "timing": {"repeat": {"boundsPeriod": {"start": "2025-10-04", "end": "2025-10-31"}, "frequency": 1, "period": 1, "periodUnit": "d"}},
          "doseAndRate": [{"doseQuantity": {"value": 1, "unit": "tablet"}}]
        }],
        "dispenseRequest": {
          "validityPeriod": {"start": "2025-10-04", "end": "2025-10-31"},
          "quantity": {"value": 28, "unit": "tablet"},
          "expectedSupplyDuration": {"value": 28, "unit": "days", "system": "http://unitsofmeasure.org", "code": "d"}
        }
      },
      "request": {"method": "PUT", "url": "MedicationRequest/ANTIDEP-M2A"}
    },
    {
      "fullUrl": "urn:uuid:enc-antidep-2b",
      "resource": {
        "resourceType": "Encounter",
        "id": "ANTIDEP-E2B",
        "status": "finished",
        "class": {"system": "http://terminology.hl7.org/CodeSystem/v3-ActCode", "code": "AMB"},
        "subject": {"reference": "Patient/ANTIDEP-CROSS-P2"},
        "serviceProvider": {"reference": "Organization/HOSPITAL-D"},
        "period": {"start": "2025-10-11T11:00:00+08:00", "end": "2025-10-11T11:30:00+08:00"}
      },
      "request": {"method": "PUT", "url": "Encounter/ANTIDEP-E2B"}
    },
    {
      "fullUrl": "urn:uuid:med-antidep-2b",
      "resource": {
        "resourceType": "MedicationRequest",
        "id": "ANTIDEP-M2B",
        "status": "completed",
        "intent": "order",
        "medicationCodeableConcept": {
          "coding": [{"system": "http://www.whocc.no/atc", "code": "N06AB05", "display": "Paroxetine"}],
          "text": "克憂果 Paroxetine 20mg"
        },
        "subject": {"reference": "Patient/ANTIDEP-CROSS-P2"},
        "encounter": {"reference": "Encounter/ANTIDEP-E2B"},
        "authoredOn": "2025-10-11T11:00:00+08:00",
        "dosageInstruction": [{
          "timing": {"repeat": {"boundsPeriod": {"start": "2025-10-11", "end": "2025-11-07"}, "frequency": 1, "period": 1, "periodUnit": "d"}},
          "doseAndRate": [{"doseQuantity": {"value": 1, "unit": "tablet"}}]
        }],
        "dispenseRequest": {
          "validityPeriod": {"start": "2025-10-11", "end": "2025-11-07"},
          "quantity": {"value": 28, "unit": "tablet"},
          "expectedSupplyDuration": {"value": 28, "unit": "days", "system": "http://unitsofmeasure.org", "code": "d"}
        }
      },
      "request": {"method": "PUT", "url": "MedicationRequest/ANTIDEP-M2B"}
    },
    {
      "fullUrl": "urn:uuid:enc-antidep-3a",
      "resource": {
        "resourceType": "Encounter",
        "id": "ANTIDEP-E3A",
        "status": "finished",
        "class": {"system": "http://terminology.hl7.org/CodeSystem/v3-ActCode", "code": "AMB"},
        "subject": {"reference": "Patient/ANTIDEP-CROSS-P3"},
        "serviceProvider": {"reference": "Organization/HOSPITAL-C"},
        "period": {"start": "2025-10-06T15:00:00+08:00", "end": "2025-10-06T15:30:00+08:00"}
      },
      "request": {"method": "PUT", "url": "Encounter/ANTIDEP-E3A"}
    },
    {
      "fullUrl": "urn:uuid:med-antidep-3a",
      "resource": {
        "resourceType": "MedicationRequest",
        "id": "ANTIDEP-M3A",
        "status": "completed",
        "intent": "order",
        "medicationCodeableConcept": {
          "coding": [{"system": "http://www.whocc.no/atc", "code": "N06AA09", "display": "Amitriptyline"}],
          "text": "安米替林 Amitriptyline 25mg"
        },
        "subject": {"reference": "Patient/ANTIDEP-CROSS-P3"},
        "encounter": {"reference": "Encounter/ANTIDEP-E3A"},
        "authoredOn": "2025-10-06T15:00:00+08:00",
        "dosageInstruction": [{
          "timing": {"repeat": {"boundsPeriod": {"start": "2025-10-06", "end": "2025-11-02"}, "frequency": 1, "period": 1, "periodUnit": "d"}},
          "doseAndRate": [{"doseQuantity": {"value": 1, "unit": "tablet"}}]
        }],
        "dispenseRequest": {
          "validityPeriod": {"start": "2025-10-06", "end": "2025-11-02"},
          "quantity": {"value": 28, "unit": "tablet"},
          "expectedSupplyDuration": {"value": 28, "unit": "days", "system": "http://unitsofmeasure.org", "code": "d"}
        }
      },
      "request": {"method": "PUT", "url": "MedicationRequest/ANTIDEP-M3A"}
    },
    {
      "fullUrl": "urn:uuid:enc-antidep-3b",
      "resource": {
        "resourceType": "Encounter",
        "id": "ANTIDEP-E3B",
        "status": "finished",
        "class": {"system": "http://terminology.hl7.org/CodeSystem/v3-ActCode", "code": "AMB"},
        "subject": {"reference": "Patient/ANTIDEP-CROSS-P3"},
        "serviceProvider": {"reference": "Organization/HOSPITAL-D"},
        "period": {"start": "2025-10-13T16:00:00+08:00", "end": "2025-10-13T16:30:00+08:00"}
      },
      "request": {"method": "PUT", "url": "Encounter/ANTIDEP-E3B"}
    },
    {
      "fullUrl": "urn:uuid:med-antidep-3b",
      "resource": {
        "resourceType": "MedicationRequest",
        "id": "ANTIDEP-M3B",
        "status": "completed",
        "intent": "order",
        "medicationCodeableConcept": {
          "coding": [{"system": "http://www.whocc.no/atc", "code": "N06AB03", "display": "Fluoxetine"}],
          "text": "百憂解 Fluoxetine 20mg"
        },
        "subject": {"reference": "Patient/ANTIDEP-CROSS-P3"},
        "encounter": {"reference": "Encounter/ANTIDEP-E3B"},
        "authoredOn": "2025-10-13T16:00:00+08:00",
        "dosageInstruction": [{
          "timing": {"repeat": {"boundsPeriod": {"start": "2025-10-13", "end": "2025-11-09"}, "frequency": 1, "period": 1, "periodUnit": "d"}},
          "doseAndRate": [{"doseQuantity": {"value": 1, "unit": "capsule"}}]
        }],
        "dispenseRequest": {
          "validityPeriod": {"start": "2025-10-13", "end": "2025-11-09"},
          "quantity": {"value": 28, "unit": "capsule"},
          "expectedSupplyDuration": {"value": 28, "unit": "days", "system": "http://unitsofmeasure.org", "code": "d"}
        }
      },
      "request": {"method": "PUT", "url": "MedicationRequest/ANTIDEP-M3B"}
    }
  ]
}
