{
  "resourceType": "Bundle",
  "type": "transaction",
  "entry": [
    {
      "fullUrl": "urn:uuid:org-c",
      "resource": {
        "resourceType": "Organization",
        "id": "HOSPITAL-C",
        "name": "台大醫院",
        "identifier": [{"system": "https://www.nhi.gov.tw", "value": "0501050011"}]
      },
      "request": {"method": "PUT", "url": "Organization/HOSPITAL-C"}
    },
    {
      "fullUrl": "urn:uuid:org-d",
      "resource": {
        "resourceType": "Organization",
        "id": "HOSPITAL-D",
        "name": "長庚醫院",
        "identifier": [{"system": "https://www.nhi.gov.tw", "value": "1131060029"}]
      },
      "request": {"method": "PUT", "url": "Organization/HOSPITAL-D"}
    },
    {
      "fullUrl": "urn:uuid:patient-ch1",
      "resource": {
        "resourceType": "Patient",
        "id": "CH-OVERLAP-P1",
        "gender": "male",
        "birthDate": "1955-01-10",
        "name": [{"text": "張大同", "family": "Zhang", "given": ["Datong"]}]
      },
      "request": {"method": "PUT", "url": "Patient/CH-OVERLAP-P1"}
    },
    {
      "fullUrl": "urn:uuid:patient-ch2",
      "resource": {
        "resourceType": "Patient",
        "id": "CH-OVERLAP-P2",
        "gender": "female",
        "birthDate": "1960-05-15",
        "name": [{"text": "林美華", "family": "Lin", "given": ["Meihua"]}]
      },
      "request": {"method": "PUT", "url": "Patient/CH-OVERLAP-P2"}
    },
    {
      "fullUrl": "urn:uuid:patient-ch3",
      "resource": {
        "resourceType": "Patient",
        "id": "CH-OVERLAP-P3",
        "gender": "male",
        "birthDate": "1958-08-20",
        "name": [{"text": "陳志強", "family": "Chen", "given": ["Zhiqiang"]}]
      },
      "request": {"method": "PUT", "url": "Patient/CH-OVERLAP-P3"}
    },
    {
      "fullUrl": "urn:uuid:patient-ch4",
      "resource": {
        "resourceType": "Patient",
        "id": "CH-OVERLAP-P4",
        "gender": "female",
        "birthDate": "1962-11-25",
        "name": [{"text": "黃淑芬", "family": "Huang", "given": ["Shufen"]}]
      },
      "request": {"method": "PUT", "url": "Patient/CH-OVERLAP-P4"}
    },
    {
      "fullUrl": "urn:uuid:patient-ch5",
      "resource": {
        "resourceType": "Patient",
        "id": "CH-OVERLAP-P5",
        "gender": "male",
        "birthDate": "1965-03-30",
        "name": [{"text": "劉建國", "family": "Liu", "given": ["Jianguo"]}]
      },
      "request": {"method": "PUT", "url": "Patient/CH-OVERLAP-P5"}
    },
    {
      "fullUrl": "urn:uuid:enc-ch1a",
      "resource": {
        "resourceType": "Encounter",
        "id": "CH-E1A",
        "status": "finished",
        "class": {"system": "http://terminology.hl7.org/CodeSystem/v3-ActCode", "code": "AMB"},
        "subject": {"reference": "Patient/CH-OVERLAP-P1"},
        "serviceProvider": {"reference": "Organization/HOSPITAL-C"},
        "period": {"start": "2025-10-01T09:00:00+08:00", "end": "2025-10-01T09:30:00+08:00"}
      },
      "request": {"method": "PUT", "url": "Encounter/CH-E1A"}
    },
    {
      "fullUrl": "urn:uuid:med-ch1a",
      "resource": {
        "resourceType": "MedicationRequest",
        "id": "CH-M1A",
        "status": "completed",
        "intent": "order",
        "medicationCodeableConcept": {
          "coding": [{"system": "http://www.whocc.no/atc", "code": "C09AA02", "display": "Enalapril"}],
          "text": "益壓穩 Enalapril 5mg"
        },
        "subject": {"reference": "Patient/CH-OVERLAP-P1"},
        "encounter": {"reference": "Encounter/CH-E1A"},
        "authoredOn": "2025-10-01T09:00:00+08:00",
        "dosageInstruction": [{
          "timing": {"repeat": {"boundsPeriod": {"start": "2025-10-01", "end": "2025-10-28"}, "frequency": 1, "period": 1, "periodUnit": "d"}},
          "doseAndRate": [{"doseQuantity": {"value": 1, "unit": "tablet"}}]
        }],
        "dispenseRequest": {
          "validityPeriod": {"start": "2025-10-01", "end": "2025-10-28"},
          "quantity": {"value": 28, "unit": "tablet"},
          "expectedSupplyDuration": {"value": 28, "unit": "days", "system": "http://unitsofmeasure.org", "code": "d"}
        }
      },
      "request": {"method": "PUT", "url": "MedicationRequest/CH-M1A"}
    },
    {
      "fullUrl": "urn:uuid:enc-ch1b",
      "resource": {
        "resourceType": "Encounter",
        "id": "CH-E1B",
        "status": "finished",
        "class": {"system": "http://terminology.hl7.org/CodeSystem/v3-ActCode", "code": "AMB"},
        "subject": {"reference": "Patient/CH-OVERLAP-P1"},
        "serviceProvider": {"reference": "Organization/HOSPITAL-D"},
        "period": {"start": "2025-10-08T14:00:00+08:00", "end": "2025-10-08T14:30:00+08:00"}
      },
      "request": {"method": "PUT", "url": "Encounter/CH-E1B"}
    },
    {
      "fullUrl": "urn:uuid:med-ch1b",
      "resource": {
        "resourceType": "MedicationRequest",
        "id": "CH-M1B",
        "status": "completed",
        "intent": "order",
        "medicationCodeableConcept": {
          "coding": [{"system": "http://www.whocc.no/atc", "code": "C08CA01", "display": "Amlodipine"}],
          "text": "脈優 Amlodipine 5mg"
        },
        "subject": {"reference": "Patient/CH-OVERLAP-P1"},
        "encounter": {"reference": "Encounter/CH-E1B"},
        "authoredOn": "2025-10-08T14:00:00+08:00",
        "dosageInstruction": [{
          "timing": {"repeat": {"boundsPeriod": {"start": "2025-10-08", "end": "2025-11-04"}, "frequency": 1, "period": 1, "periodUnit": "d"}},
          "doseAndRate": [{"doseQuantity": {"value": 1, "unit": "tablet"}}]
        }],
        "dispenseRequest": {
          "validityPeriod": {"start": "2025-10-08", "end": "2025-11-04"},
          "quantity": {"value": 28, "unit": "tablet"},
          "expectedSupplyDuration": {"value": 28, "unit": "days", "system": "http://unitsofmeasure.org", "code": "d"}
        }
      },
      "request": {"method": "PUT", "url": "MedicationRequest/CH-M1B"}
    },
    {
      "fullUrl": "urn:uuid:enc-ch2a",
      "resource": {
        "resourceType": "Encounter",
        "id": "CH-E2A",
        "status": "finished",
        "class": {"system": "http://terminology.hl7.org/CodeSystem/v3-ActCode", "code": "AMB"},
        "subject": {"reference": "Patient/CH-OVERLAP-P2"},
        "serviceProvider": {"reference": "Organization/HOSPITAL-C"},
        "period": {"start": "2025-10-03T10:00:00+08:00", "end": "2025-10-03T10:30:00+08:00"}
      },
      "request": {"method": "PUT", "url": "Encounter/CH-E2A"}
    },
    {
      "fullUrl": "urn:uuid:med-ch2a",
      "resource": {
        "resourceType": "MedicationRequest",
        "id": "CH-M2A",
        "status": "completed",
        "intent": "order",
        "medicationCodeableConcept": {
          "coding": [{"system": "http://www.whocc.no/atc", "code": "C07AB03", "display": "Atenolol"}],
          "text": "天諾敏 Atenolol 50mg"
        },
        "subject": {"reference": "Patient/CH-OVERLAP-P2"},
        "encounter": {"reference": "Encounter/CH-E2A"},
        "authoredOn": "2025-10-03T10:00:00+08:00",
        "dosageInstruction": [{
          "timing": {"repeat": {"boundsPeriod": {"start": "2025-10-03", "end": "2025-10-30"}, "frequency": 1, "period": 1, "periodUnit": "d"}},
          "doseAndRate": [{"doseQuantity": {"value": 1, "unit": "tablet"}}]
        }],
        "dispenseRequest": {
          "validityPeriod": {"start": "2025-10-03", "end": "2025-10-30"},
          "quantity": {"value": 28, "unit": "tablet"},
          "expectedSupplyDuration": {"value": 28, "unit": "days", "system": "http://unitsofmeasure.org", "code": "d"}
        }
      },
      "request": {"method": "PUT", "url": "MedicationRequest/CH-M2A"}
    },
    {
      "fullUrl": "urn:uuid:enc-ch2b",
      "resource": {
        "resourceType": "Encounter",
        "id": "CH-E2B",
        "status": "finished",
        "class": {"system": "http://terminology.hl7.org/CodeSystem/v3-ActCode", "code": "AMB"},
        "subject": {"reference": "Patient/CH-OVERLAP-P2"},
        "serviceProvider": {"reference": "Organization/HOSPITAL-D"},
        "period": {"start": "2025-10-10T11:00:00+08:00", "end": "2025-10-10T11:30:00+08:00"}
      },
      "request": {"method": "PUT", "url": "Encounter/CH-E2B"}
    },
    {
      "fullUrl": "urn:uuid:med-ch2b",
      "resource": {
        "resourceType": "MedicationRequest",
        "id": "CH-M2B",
        "status": "completed",
        "intent": "order",
        "medicationCodeableConcept": {
          "coding": [{"system": "http://www.whocc.no/atc", "code": "C09CA01", "display": "Losartan"}],
          "text": "可悅您 Losartan 50mg"
        },
        "subject": {"reference": "Patient/CH-OVERLAP-P2"},
        "encounter": {"reference": "Encounter/CH-E2B"},
        "authoredOn": "2025-10-10T11:00:00+08:00",
        "dosageInstruction": [{
          "timing": {"repeat": {"boundsPeriod": {"start": "2025-10-10", "end": "2025-11-06"}, "frequency": 1, "period": 1, "periodUnit": "d"}},
          "doseAndRate": [{"doseQuantity": {"value": 1, "unit": "tablet"}}]
        }],
        "dispenseRequest": {
          "validityPeriod": {"start": "2025-10-10", "end": "2025-11-06"},
          "quantity": {"value": 28, "unit": "tablet"},
          "expectedSupplyDuration": {"value": 28, "unit": "days", "system": "http://unitsofmeasure.org", "code": "d"}
        }
      },
      "request": {"method": "PUT", "url": "MedicationRequest/CH-M2B"}
    },
    {
      "fullUrl": "urn:uuid:enc-ch3a",
      "resource": {
        "resourceType": "Encounter",
        "id": "CH-E3A",
        "status": "finished",
        "class": {"system": "http://terminology.hl7.org/CodeSystem/v3-ActCode", "code": "AMB"},
        "subject": {"reference": "Patient/CH-OVERLAP-P3"},
        "serviceProvider": {"reference": "Organization/HOSPITAL-C"},
        "period": {"start": "2025-10-05T15:00:00+08:00", "end": "2025-10-05T15:30:00+08:00"}
      },
      "request": {"method": "PUT", "url": "Encounter/CH-E3A"}
    },
    {
      "fullUrl": "urn:uuid:med-ch3a",
      "resource": {
        "resourceType": "MedicationRequest",
        "id": "CH-M3A",
        "status": "completed",
        "intent": "order",
        "medicationCodeableConcept": {
          "coding": [{"system": "http://www.whocc.no/atc", "code": "C08CA01", "display": "Amlodipine"}],
          "text": "脈優 Amlodipine 5mg"
        },
        "subject": {"reference": "Patient/CH-OVERLAP-P3"},
        "encounter": {"reference": "Encounter/CH-E3A"},
        "authoredOn": "2025-10-05T15:00:00+08:00",
        "dosageInstruction": [{
          "timing": {"repeat": {"boundsPeriod": {"start": "2025-10-05", "end": "2025-11-01"}, "frequency": 1, "period": 1, "periodUnit": "d"}},
          "doseAndRate": [{"doseQuantity": {"value": 1, "unit": "tablet"}}]
        }],
        "dispenseRequest": {
          "validityPeriod": {"start": "2025-10-05", "end": "2025-11-01"},
          "quantity": {"value": 28, "unit": "tablet"},
          "expectedSupplyDuration": {"value": 28, "unit": "days", "system": "http://unitsofmeasure.org", "code": "d"}
        }
      },
      "request": {"method": "PUT", "url": "MedicationRequest/CH-M3A"}
    },
    {
      "fullUrl": "urn:uuid:enc-ch3b",
      "resource": {
        "resourceType": "Encounter",
        "id": "CH-E3B",
        "status": "finished",
        "class": {"system": "http://terminology.hl7.org/CodeSystem/v3-ActCode", "code": "AMB"},
        "subject": {"reference": "Patient/CH-OVERLAP-P3"},
        "serviceProvider": {"reference": "Organization/HOSPITAL-D"},
        "period": {"start": "2025-10-12T16:00:00+08:00", "end": "2025-10-12T16:30:00+08:00"}
      },
      "request": {"method": "PUT", "url": "Encounter/CH-E3B"}
    },
    {
      "fullUrl": "urn:uuid:med-ch3b",
      "resource": {
        "resourceType": "MedicationRequest",
        "id": "CH-M3B",
        "status": "completed",
        "intent": "order",
        "medicationCodeableConcept": {
          "coding": [{"system": "http://www.whocc.no/atc", "code": "C09AA02", "display": "Enalapril"}],
          "text": "益壓穩 Enalapril 10mg"
        },
        "subject": {"reference": "Patient/CH-OVERLAP-P3"},
        "encounter": {"reference": "Encounter/CH-E3B"},
        "authoredOn": "2025-10-12T16:00:00+08:00",
        "dosageInstruction": [{
          "timing": {"repeat": {"boundsPeriod": {"start": "2025-10-12", "end": "2025-11-08"}, "frequency": 1, "period": 1, "periodUnit": "d"}},
          "doseAndRate": [{"doseQuantity": {"value": 1, "unit": "tablet"}}]
        }],
        "dispenseRequest": {
          "validityPeriod": {"start": "2025-10-12", "end": "2025-11-08"},
          "quantity": {"value": 28, "unit": "tablet"},
          "expectedSupplyDuration": {"value": 28, "unit": "days", "system": "http://unitsofmeasure.org", "code": "d"}
        }
      },
      "request": {"method": "PUT", "url": "MedicationRequest/CH-M3B"}
    },
    {
      "fullUrl": "urn:uuid:enc-ch4a",
      "resource": {
        "resourceType": "Encounter",
        "id": "CH-E4A",
        "status": "finished",
        "class": {"system": "http://terminology.hl7.org/CodeSystem/v3-ActCode", "code": "AMB"},
        "subject": {"reference": "Patient/CH-OVERLAP-P4"},
        "serviceProvider": {"reference": "Organization/HOSPITAL-C"},
        "period": {"start": "2025-10-07T09:00:00+08:00", "end": "2025-10-07T09:30:00+08:00"}
      },
      "request": {"method": "PUT", "url": "Encounter/CH-E4A"}
    },
    {
      "fullUrl": "urn:uuid:med-ch4a",
      "resource": {
        "resourceType": "MedicationRequest",
        "id": "CH-M4A",
        "status": "completed",
        "intent": "order",
        "medicationCodeableConcept": {
          "coding": [{"system": "http://www.whocc.no/atc", "code": "C09CA01", "display": "Losartan"}],
          "text": "可悅您 Losartan 50mg"
        },
        "subject": {"reference": "Patient/CH-OVERLAP-P4"},
        "encounter": {"reference": "Encounter/CH-E4A"},
        "authoredOn": "2025-10-07T09:00:00+08:00",
        "dosageInstruction": [{
          "timing": {"repeat": {"boundsPeriod": {"start": "2025-10-07", "end": "2025-11-03"}, "frequency": 1, "period": 1, "periodUnit": "d"}},
          "doseAndRate": [{"doseQuantity": {"value": 1, "unit": "tablet"}}]
        }],
        "dispenseRequest": {
          "validityPeriod": {"start": "2025-10-07", "end": "2025-11-03"},
          "quantity": {"value": 28, "unit": "tablet"},
          "expectedSupplyDuration": {"value": 28, "unit": "days", "system": "http://unitsofmeasure.org", "code": "d"}
        }
      },
      "request": {"method": "PUT", "url": "MedicationRequest/CH-M4A"}
    },
    {
      "fullUrl": "urn:uuid:enc-ch4b",
      "resource": {
        "resourceType": "Encounter",
        "id": "CH-E4B",
        "status": "finished",
        "class": {"system": "http://terminology.hl7.org/CodeSystem/v3-ActCode", "code": "AMB"},
        "subject": {"reference": "Patient/CH-OVERLAP-P4"},
        "serviceProvider": {"reference": "Organization/HOSPITAL-D"},
        "period": {"start": "2025-10-14T10:00:00+08:00", "end": "2025-10-14T10:30:00+08:00"}
      },
      "request": {"method": "PUT", "url": "Encounter/CH-E4B"}
    },
    {
      "fullUrl": "urn:uuid:med-ch4b",
      "resource": {
        "resourceType": "MedicationRequest",
        "id": "CH-M4B",
        "status": "completed",
        "intent": "order",
        "medicationCodeableConcept": {
          "coding": [{"system": "http://www.whocc.no/atc", "code": "C07AB03", "display": "Atenolol"}],
          "text": "天諾敏 Atenolol 50mg"
        },
        "subject": {"reference": "Patient/CH-OVERLAP-P4"},
        "encounter": {"reference": "Encounter/CH-E4B"},
        "authoredOn": "2025-10-14T10:00:00+08:00",
        "dosageInstruction": [{
          "timing": {"repeat": {"boundsPeriod": {"start": "2025-10-14", "end": "2025-11-10"}, "frequency": 1, "period": 1, "periodUnit": "d"}},
          "doseAndRate": [{"doseQuantity": {"value": 1, "unit": "tablet"}}]
        }],
        "dispenseRequest": {
          "validityPeriod": {"start": "2025-10-14", "end": "2025-11-10"},
          "quantity": {"value": 28, "unit": "tablet"},
          "expectedSupplyDuration": {"value": 28, "unit": "days", "system": "http://unitsofmeasure.org", "code": "d"}
        }
      },
      "request": {"method": "PUT", "url": "MedicationRequest/CH-M4B"}
    },
    {
      "fullUrl": "urn:uuid:enc-ch5a",
      "resource": {
        "resourceType": "Encounter",
        "id": "CH-E5A",
        "status": "finished",
        "class": {"system": "http://terminology.hl7.org/CodeSystem/v3-ActCode", "code": "AMB"},
        "subject": {"reference": "Patient/CH-OVERLAP-P5"},
        "serviceProvider": {"reference": "Organization/HOSPITAL-C"},
        "period": {"start": "2025-10-09T14:00:00+08:00", "end": "2025-10-09T14:30:00+08:00"}
      },
      "request": {"method": "PUT", "url": "Encounter/CH-E5A"}
    },
    {
      "fullUrl": "urn:uuid:med-ch5a",
      "resource": {
        "resourceType": "MedicationRequest",
        "id": "CH-M5A",
        "status": "completed",
        "intent": "order",
        "medicationCodeableConcept": {
          "coding": [{"system": "http://www.whocc.no/atc", "code": "C09AA02", "display": "Enalapril"}],
          "text": "益壓穩 Enalapril 5mg"
        },
        "subject": {"reference": "Patient/CH-OVERLAP-P5"},
        "encounter": {"reference": "Encounter/CH-E5A"},
        "authoredOn": "2025-10-09T14:00:00+08:00",
        "dosageInstruction": [{
          "timing": {"repeat": {"boundsPeriod": {"start": "2025-10-09", "end": "2025-11-05"}, "frequency": 1, "period": 1, "periodUnit": "d"}},
          "doseAndRate": [{"doseQuantity": {"value": 1, "unit": "tablet"}}]
        }],
        "dispenseRequest": {
          "validityPeriod": {"start": "2025-10-09", "end": "2025-11-05"},
          "quantity": {"value": 28, "unit": "tablet"},
          "expectedSupplyDuration": {"value": 28, "unit": "days", "system": "http://unitsofmeasure.org", "code": "d"}
        }
      },
      "request": {"method": "PUT", "url": "MedicationRequest/CH-M5A"}
    },
    {
      "fullUrl": "urn:uuid:enc-ch5b",
      "resource": {
        "resourceType": "Encounter",
        "id": "CH-E5B",
        "status": "finished",
        "class": {"system": "http://terminology.hl7.org/CodeSystem/v3-ActCode", "code": "AMB"},
        "subject": {"reference": "Patient/CH-OVERLAP-P5"},
        "serviceProvider": {"reference": "Organization/HOSPITAL-D"},
        "period": {"start": "2025-10-16T15:00:00+08:00", "end": "2025-10-16T15:30:00+08:00"}
      },
      "request": {"method": "PUT", "url": "Encounter/CH-E5B"}
    },
    {
      "fullUrl": "urn:uuid:med-ch5b",
      "resource": {
        "resourceType": "MedicationRequest",
        "id": "CH-M5B",
        "status": "completed",
        "intent": "order",
        "medicationCodeableConcept": {
          "coding": [{"system": "http://www.whocc.no/atc", "code": "C08CA01", "display": "Amlodipine"}],
          "text": "脈優 Amlodipine 5mg"
        },
        "subject": {"reference": "Patient/CH-OVERLAP-P5"},
        "encounter": {"reference": "Encounter/CH-E5B"},
        "authoredOn": "2025-10-16T15:00:00+08:00",
        "dosageInstruction": [{
          "timing": {"repeat": {"boundsPeriod": {"start": "2025-10-16", "end": "2025-11-12"}, "frequency": 1, "period": 1, "periodUnit": "d"}},
          "doseAndRate": [{"doseQuantity": {"value": 1, "unit": "tablet"}}]
        }],
        "dispenseRequest": {
          "validityPeriod": {"start": "2025-10-16", "end": "2025-11-12"},
          "quantity": {"value": 28, "unit": "tablet"},
          "expectedSupplyDuration": {"value": 28, "unit": "days", "system": "http://unitsofmeasure.org", "code": "d"}
        }
      },
      "request": {"method": "PUT", "url": "MedicationRequest/CH-M5B"}
    }
  ]
}
