{
  "resourceType": "Bundle",
  "type": "transaction",
  "entry": [
    {
      "fullUrl": "urn:uuid:patient-lipid-1",
      "resource": {
        "resourceType": "Patient",
        "id": "LIPID-CROSS-P1",
        "gender": "male",
        "birthDate": "1958-03-20",
        "name": [{"text": "吳建華", "family": "Wu", "given": ["Jianhua"]}]
      },
      "request": {"method": "PUT", "url": "Patient/LIPID-CROSS-P1"}
    },
    {
      "fullUrl": "urn:uuid:patient-lipid-2",
      "resource": {
        "resourceType": "Patient",
        "id": "LIPID-CROSS-P2",
        "gender": "female",
        "birthDate": "1962-07-15",
        "name": [{"text": "鄭雅芳", "family": "Zheng", "given": ["Yafang"]}]
      },
      "request": {"method": "PUT", "url": "Patient/LIPID-CROSS-P2"}
    },
    {
      "fullUrl": "urn:uuid:patient-lipid-3",
      "resource": {
        "resourceType": "Patient",
        "id": "LIPID-CROSS-P3",
        "gender": "male",
        "birthDate": "1965-11-08",
        "name": [{"text": "許志明", "family": "Xu", "given": ["Zhiming"]}]
      },
      "request": {"method": "PUT", "url": "Patient/LIPID-CROSS-P3"}
    },
    {
      "fullUrl": "urn:uuid:enc-lipid-1a",
      "resource": {
        "resourceType": "Encounter",
        "id": "LIPID-E1A",
        "status": "finished",
        "class": {"system": "http://terminology.hl7.org/CodeSystem/v3-ActCode", "code": "AMB"},
        "subject": {"reference": "Patient/LIPID-CROSS-P1"},
        "serviceProvider": {"reference": "Organization/HOSPITAL-C"},
        "period": {"start": "2025-10-02T09:00:00+08:00", "end": "2025-10-02T09:30:00+08:00"}
      },
      "request": {"method": "PUT", "url": "Encounter/LIPID-E1A"}
    },
    {
      "fullUrl": "urn:uuid:med-lipid-1a",
      "resource": {
        "resourceType": "MedicationRequest",
        "id": "LIPID-M1A",
        "status": "completed",
        "intent": "order",
        "medicationCodeableConcept": {
          "coding": [{"system": "http://www.whocc.no/atc", "code": "C10AA01", "display": "Simvastatin"}],
          "text": "素果 Simvastatin 20mg"
        },
        "subject": {"reference": "Patient/LIPID-CROSS-P1"},
        "encounter": {"reference": "Encounter/LIPID-E1A"},
        "authoredOn": "2025-10-02T09:00:00+08:00",
        "dosageInstruction": [{
          "timing": {"repeat": {"boundsPeriod": {"start": "2025-10-02", "end": "2025-10-29"}, "frequency": 1, "period": 1, "periodUnit": "d"}},
          "doseAndRate": [{"doseQuantity": {"value": 1, "unit": "tablet"}}]
        }],
        "dispenseRequest": {
          "validityPeriod": {"start": "2025-10-02", "end": "2025-10-29"},
          "quantity": {"value": 28, "unit": "tablet"},
          "expectedSupplyDuration": {"value": 28, "unit": "days", "system": "http://unitsofmeasure.org", "code": "d"}
        }
      },
      "request": {"method": "PUT", "url": "MedicationRequest/LIPID-M1A"}
    },
    {
      "fullUrl": "urn:uuid:enc-lipid-1b",
      "resource": {
        "resourceType": "Encounter",
        "id": "LIPID-E1B",
        "status": "finished",
        "class": {"system": "http://terminology.hl7.org/CodeSystem/v3-ActCode", "code": "AMB"},
        "subject": {"reference": "Patient/LIPID-CROSS-P1"},
        "serviceProvider": {"reference": "Organization/HOSPITAL-D"},
        "period": {"start": "2025-10-10T14:00:00+08:00", "end": "2025-10-10T14:30:00+08:00"}
      },
      "request": {"method": "PUT", "url": "Encounter/LIPID-E1B"}
    },
    {
      "fullUrl": "urn:uuid:med-lipid-1b",
      "resource": {
        "resourceType": "MedicationRequest",
        "id": "LIPID-M1B",
        "status": "completed",
        "intent": "order",
        "medicationCodeableConcept": {
          "coding": [{"system": "http://www.whocc.no/atc", "code": "C10AA05", "display": "Atorvastatin"}],
          "text": "立普妥 Atorvastatin 10mg"
        },
        "subject": {"reference": "Patient/LIPID-CROSS-P1"},
        "encounter": {"reference": "Encounter/LIPID-E1B"},
        "authoredOn": "2025-10-10T14:00:00+08:00",
        "dosageInstruction": [{
          "timing": {"repeat": {"boundsPeriod": {"start": "2025-10-10", "end": "2025-11-06"}, "frequency": 1, "period": 1, "periodUnit": "d"}},
          "doseAndRate": [{"doseQuantity": {"value": 1, "unit": "tablet"}}]
        }],
        "dispenseRequest": {
          "validityPeriod": {"start": "2025-10-10", "end": "2025-11-06"},
          "quantity": {"value": 28, "unit": "tablet"},
          "expectedSupplyDuration": {"value": 28, "unit": "days", "system": "http://unitsofmeasure.org", "code": "d"}
        }
      },
      "request": {"method": "PUT", "url": "MedicationRequest/LIPID-M1B"}
    },
    {
      "fullUrl": "urn:uuid:enc-lipid-2a",
      "resource": {
        "resourceType": "Encounter",
        "id": "LIPID-E2A",
        "status": "finished",
        "class": {"system": "http://terminology.hl7.org/CodeSystem/v3-ActCode", "code": "AMB"},
        "subject": {"reference": "Patient/LIPID-CROSS-P2"},
        "serviceProvider": {"reference": "Organization/HOSPITAL-C"},
        "period": {"start": "2025-10-04T10:00:00+08:00", "end": "2025-10-04T10:30:00+08:00"}
      },
      "request": {"method": "PUT", "url": "Encounter/LIPID-E2A"}
    },
    {
      "fullUrl": "urn:uuid:med-lipid-2a",
      "resource": {
        "resourceType": "MedicationRequest",
        "id": "LIPID-M2A",
        "status": "completed",
        "intent": "order",
        "medicationCodeableConcept": {
          "coding": [{"system": "http://www.whocc.no/atc", "code": "C10AA07", "display": "Rosuvastatin"}],
          "text": "冠脂妥 Rosuvastatin 10mg"
        },
        "subject": {"reference": "Patient/LIPID-CROSS-P2"},
        "encounter": {"reference": "Encounter/LIPID-E2A"},
        "authoredOn": "2025-10-04T10:00:00+08:00",
        "dosageInstruction": [{
          "timing": {"repeat": {"boundsPeriod": {"start": "2025-10-04", "end": "2025-10-31"}, "frequency": 1, "period": 1, "periodUnit": "d"}},
          "doseAndRate": [{"doseQuantity": {"value": 1, "unit": "tablet"}}]
        }],
        "dispenseRequest": {
          "validityPeriod": {"start": "2025-10-04", "end": "2025-10-31"},
          "quantity": {"value": 28, "unit": "tablet"},
          "expectedSupplyDuration": {"value": 28, "unit": "days", "system": "http://unitsofmeasure.org", "code": "d"}
        }
      },
      "request": {"method": "PUT", "url": "MedicationRequest/LIPID-M2A"}
    },
    {
      "fullUrl": "urn:uuid:enc-lipid-2b",
      "resource": {
        "resourceType": "Encounter",
        "id": "LIPID-E2B",
        "status": "finished",
        "class": {"system": "http://terminology.hl7.org/CodeSystem/v3-ActCode", "code": "AMB"},
        "subject": {"reference": "Patient/LIPID-CROSS-P2"},
        "serviceProvider": {"reference": "Organization/HOSPITAL-D"},
        "period": {"start": "2025-10-12T11:00:00+08:00", "end": "2025-10-12T11:30:00+08:00"}
      },
      "request": {"method": "PUT", "url": "Encounter/LIPID-E2B"}
    },
    {
      "fullUrl": "urn:uuid:med-lipid-2b",
      "resource": {
        "resourceType": "MedicationRequest",
        "id": "LIPID-M2B",
        "status": "completed",
        "intent": "order",
        "medicationCodeableConcept": {
          "coding": [{"system": "http://www.whocc.no/atc", "code": "C10AA01", "display": "Simvastatin"}],
          "text": "素果 Simvastatin 40mg"
        },
        "subject": {"reference": "Patient/LIPID-CROSS-P2"},
        "encounter": {"reference": "Encounter/LIPID-E2B"},
        "authoredOn": "2025-10-12T11:00:00+08:00",
        "dosageInstruction": [{
          "timing": {"repeat": {"boundsPeriod": {"start": "2025-10-12", "end": "2025-11-08"}, "frequency": 1, "period": 1, "periodUnit": "d"}},
          "doseAndRate": [{"doseQuantity": {"value": 1, "unit": "tablet"}}]
        }],
        "dispenseRequest": {
          "validityPeriod": {"start": "2025-10-12", "end": "2025-11-08"},
          "quantity": {"value": 28, "unit": "tablet"},
          "expectedSupplyDuration": {"value": 28, "unit": "days", "system": "http://unitsofmeasure.org", "code": "d"}
        }
      },
      "request": {"method": "PUT", "url": "MedicationRequest/LIPID-M2B"}
    },
    {
      "fullUrl": "urn:uuid:enc-lipid-3a",
      "resource": {
        "resourceType": "Encounter",
        "id": "LIPID-E3A",
        "status": "finished",
        "class": {"system": "http://terminology.hl7.org/CodeSystem/v3-ActCode", "code": "AMB"},
        "subject": {"reference": "Patient/LIPID-CROSS-P3"},
        "serviceProvider": {"reference": "Organization/HOSPITAL-C"},
        "period": {"start": "2025-10-06T15:00:00+08:00", "end": "2025-10-06T15:30:00+08:00"}
      },
      "request": {"method": "PUT", "url": "Encounter/LIPID-E3A"}
    },
    {
      "fullUrl": "urn:uuid:med-lipid-3a",
      "resource": {
        "resourceType": "MedicationRequest",
        "id": "LIPID-M3A",
        "status": "completed",
        "intent": "order",
        "medicationCodeableConcept": {
          "coding": [{"system": "http://www.whocc.no/atc", "code": "C10AA05", "display": "Atorvastatin"}],
          "text": "立普妥 Atorvastatin 20mg"
        },
        "subject": {"reference": "Patient/LIPID-CROSS-P3"},
        "encounter": {"reference": "Encounter/LIPID-E3A"},
        "authoredOn": "2025-10-06T15:00:00+08:00",
        "dosageInstruction": [{
          "timing": {"repeat": {"boundsPeriod": {"start": "2025-10-06", "end": "2025-11-02"}, "frequency": 1, "period": 1, "periodUnit": "d"}},
          "doseAndRate": [{"doseQuantity": {"value": 1, "unit": "tablet"}}]
        }],
        "dispenseRequest": {
          "validityPeriod": {"start": "2025-10-06", "end": "2025-11-02"},
          "quantity": {"value": 28, "unit": "tablet"},
          "expectedSupplyDuration": {"value": 28, "unit": "days", "system": "http://unitsofmeasure.org", "code": "d"}
        }
      },
      "request": {"method": "PUT", "url": "MedicationRequest/LIPID-M3A"}
    },
    {
      "fullUrl": "urn:uuid:enc-lipid-3b",
      "resource": {
        "resourceType": "Encounter",
        "id": "LIPID-E3B",
        "status": "finished",
        "class": {"system": "http://terminology.hl7.org/CodeSystem/v3-ActCode", "code": "AMB"},
        "subject": {"reference": "Patient/LIPID-CROSS-P3"},
        "serviceProvider": {"reference": "Organization/HOSPITAL-D"},
        "period": {"start": "2025-10-14T16:00:00+08:00", "end": "2025-10-14T16:30:00+08:00"}
      },
      "request": {"method": "PUT", "url": "Encounter/LIPID-E3B"}
    },
    {
      "fullUrl": "urn:uuid:med-lipid-3b",
      "resource": {
        "resourceType": "MedicationRequest",
        "id": "LIPID-M3B",
        "status": "completed",
        "intent": "order",
        "medicationCodeableConcept": {
          "coding": [{"system": "http://www.whocc.no/atc", "code": "C10AA07", "display": "Rosuvastatin"}],
          "text": "冠脂妥 Rosuvastatin 5mg"
        },
        "subject": {"reference": "Patient/LIPID-CROSS-P3"},
        "encounter": {"reference": "Encounter/LIPID-E3B"},
        "authoredOn": "2025-10-14T16:00:00+08:00",
        "dosageInstruction": [{
          "timing": {"repeat": {"boundsPeriod": {"start": "2025-10-14", "end": "2025-11-10"}, "frequency": 1, "period": 1, "periodUnit": "d"}},
          "doseAndRate": [{"doseQuantity": {"value": 1, "unit": "tablet"}}]
        }],
        "dispenseRequest": {
          "validityPeriod": {"start": "2025-10-14", "end": "2025-11-10"},
          "quantity": {"value": 28, "unit": "tablet"},
          "expectedSupplyDuration": {"value": 28, "unit": "days", "system": "http://unitsofmeasure.org", "code": "d"}
        }
      },
      "request": {"method": "PUT", "url": "MedicationRequest/LIPID-M3B"}
    }
  ]
}
