{
  "resourceType": "Bundle",
  "type": "transaction",
  "entry": [
    {
      "fullUrl": "urn:uuid:clean-surgery-patient-001",
      "resource": {
        "resourceType": "Patient",
        "id": "clean-surgery-patient-001",
        "identifier": [{
          "system": "http://hospital.example.org/patients",
          "value": "CS-P001"
        }],
        "name": [{ "family": "王", "given": ["清手術一"] }],
        "gender": "male",
        "birthDate": "1968-03-15"
      },
      "request": { "method": "PUT", "url": "Patient/clean-surgery-patient-001" }
    },
    {
      "fullUrl": "urn:uuid:clean-surgery-encounter-001",
      "resource": {
        "resourceType": "Encounter",
        "id": "clean-surgery-encounter-001",
        "status": "finished",
        "class": {
          "system": "http://terminology.hl7.org/CodeSystem/v3-ActCode",
          "code": "IMP",
          "display": "inpatient encounter"
        },
        "subject": { "reference": "Patient/clean-surgery-patient-001" },
        "period": {
          "start": "2025-10-10T08:00:00Z",
          "end": "2025-10-15T10:00:00Z"
        }
      },
      "request": { "method": "PUT", "url": "Encounter/clean-surgery-encounter-001" }
    },
    {
      "fullUrl": "urn:uuid:clean-surgery-procedure-001",
      "resource": {
        "resourceType": "Procedure",
        "id": "clean-surgery-procedure-001",
        "status": "completed",
        "code": {
          "coding": [{
            "system": "http://snomed.info/sct",
            "code": "80146002",
            "display": "Excision of appendix"
          }]
        },
        "subject": { "reference": "Patient/clean-surgery-patient-001" },
        "encounter": { "reference": "Encounter/clean-surgery-encounter-001" },
        "performedDateTime": "2025-10-10T10:00:00Z"
      },
      "request": { "method": "PUT", "url": "Procedure/clean-surgery-procedure-001" }
    },
    {
      "fullUrl": "urn:uuid:clean-surgery-med-001",
      "resource": {
        "resourceType": "MedicationRequest",
        "id": "clean-surgery-med-001",
        "status": "completed",
        "intent": "order",
        "medicationCodeableConcept": {
          "coding": [{
            "system": "http://www.whocc.no/atc",
            "code": "J01CR02",
            "display": "Amoxicillin and clavulanic acid"
          }]
        },
        "subject": { "reference": "Patient/clean-surgery-patient-001" },
        "encounter": { "reference": "Encounter/clean-surgery-encounter-001" },
        "dosageInstruction": [{
          "timing": {
            "repeat": {
              "boundsDuration": {
                "value": 5,
                "unit": "days",
                "system": "http://unitsofmeasure.org",
                "code": "d"
              }
            }
          }
        }]
      },
      "request": { "method": "PUT", "url": "MedicationRequest/clean-surgery-med-001" }
    },
    {
      "fullUrl": "urn:uuid:clean-surgery-patient-002",
      "resource": {
        "resourceType": "Patient",
        "id": "clean-surgery-patient-002",
        "identifier": [{
          "system": "http://hospital.example.org/patients",
          "value": "CS-P002"
        }],
        "name": [{ "family": "李", "given": ["清手術二"] }],
        "gender": "female",
        "birthDate": "1972-08-22"
      },
      "request": { "method": "PUT", "url": "Patient/clean-surgery-patient-002" }
    },
    {
      "fullUrl": "urn:uuid:clean-surgery-encounter-002",
      "resource": {
        "resourceType": "Encounter",
        "id": "clean-surgery-encounter-002",
        "status": "finished",
        "class": {
          "system": "http://terminology.hl7.org/CodeSystem/v3-ActCode",
          "code": "IMP",
          "display": "inpatient encounter"
        },
        "subject": { "reference": "Patient/clean-surgery-patient-002" },
        "period": {
          "start": "2025-10-20T09:00:00Z",
          "end": "2025-10-23T11:00:00Z"
        }
      },
      "request": { "method": "PUT", "url": "Encounter/clean-surgery-encounter-002" }
    },
    {
      "fullUrl": "urn:uuid:clean-surgery-procedure-002",
      "resource": {
        "resourceType": "Procedure",
        "id": "clean-surgery-procedure-002",
        "status": "completed",
        "code": {
          "coding": [{
            "system": "http://snomed.info/sct",
            "code": "44946007",
            "display": "Herniorrhaphy"
          }]
        },
        "subject": { "reference": "Patient/clean-surgery-patient-002" },
        "encounter": { "reference": "Encounter/clean-surgery-encounter-002" },
        "performedDateTime": "2025-10-20T11:00:00Z"
      },
      "request": { "method": "PUT", "url": "Procedure/clean-surgery-procedure-002" }
    },
    {
      "fullUrl": "urn:uuid:clean-surgery-med-002",
      "resource": {
        "resourceType": "MedicationRequest",
        "id": "clean-surgery-med-002",
        "status": "completed",
        "intent": "order",
        "medicationCodeableConcept": {
          "coding": [{
            "system": "http://www.whocc.no/atc",
            "code": "J01DD04",
            "display": "Ceftriaxone"
          }]
        },
        "subject": { "reference": "Patient/clean-surgery-patient-002" },
        "encounter": { "reference": "Encounter/clean-surgery-encounter-002" },
        "dosageInstruction": [{
          "timing": {
            "repeat": {
              "boundsDuration": {
                "value": 2,
                "unit": "days",
                "system": "http://unitsofmeasure.org",
                "code": "d"
              }
            }
          }
        }]
      },
      "request": { "method": "PUT", "url": "MedicationRequest/clean-surgery-med-002" }
    },
    {
      "fullUrl": "urn:uuid:clean-surgery-patient-003",
      "resource": {
        "resourceType": "Patient",
        "id": "clean-surgery-patient-003",
        "identifier": [{
          "system": "http://hospital.example.org/patients",
          "value": "CS-P003"
        }],
        "name": [{ "family": "張", "given": ["清手術三"] }],
        "gender": "male",
        "birthDate": "1965-12-05"
      },
      "request": { "method": "PUT", "url": "Patient/clean-surgery-patient-003" }
    },
    {
      "fullUrl": "urn:uuid:clean-surgery-encounter-003",
      "resource": {
        "resourceType": "Encounter",
        "id": "clean-surgery-encounter-003",
        "status": "finished",
        "class": {
          "system": "http://terminology.hl7.org/CodeSystem/v3-ActCode",
          "code": "IMP",
          "display": "inpatient encounter"
        },
        "subject": { "reference": "Patient/clean-surgery-patient-003" },
        "period": {
          "start": "2025-11-05T07:00:00Z",
          "end": "2025-11-10T09:00:00Z"
        }
      },
      "request": { "method": "PUT", "url": "Encounter/clean-surgery-encounter-003" }
    },
    {
      "fullUrl": "urn:uuid:clean-surgery-procedure-003",
      "resource": {
        "resourceType": "Procedure",
        "id": "clean-surgery-procedure-003",
        "status": "completed",
        "code": {
          "coding": [{
            "system": "http://snomed.info/sct",
            "code": "179467005",
            "display": "Cholecystectomy"
          }]
        },
        "subject": { "reference": "Patient/clean-surgery-patient-003" },
        "encounter": { "reference": "Encounter/clean-surgery-encounter-003" },
        "performedDateTime": "2025-11-05T09:00:00Z"
      },
      "request": { "method": "PUT", "url": "Procedure/clean-surgery-procedure-003" }
    },
    {
      "fullUrl": "urn:uuid:clean-surgery-med-003",
      "resource": {
        "resourceType": "MedicationRequest",
        "id": "clean-surgery-med-003",
        "status": "completed",
        "intent": "order",
        "medicationCodeableConcept": {
          "coding": [{
            "system": "http://www.whocc.no/atc",
            "code": "J01MA02",
            "display": "Ciprofloxacin"
          }]
        },
        "subject": { "reference": "Patient/clean-surgery-patient-003" },
        "encounter": { "reference": "Encounter/clean-surgery-encounter-003" },
        "dosageInstruction": [{
          "timing": {
            "repeat": {
              "boundsDuration": {
                "value": 7,
                "unit": "days",
                "system": "http://unitsofmeasure.org",
                "code": "d"
              }
            }
          }
        }]
      },
      "request": { "method": "PUT", "url": "MedicationRequest/clean-surgery-med-003" }
    },
    {
      "fullUrl": "urn:uuid:clean-surgery-patient-004",
      "resource": {
        "resourceType": "Patient",
        "id": "clean-surgery-patient-004",
        "identifier": [{
          "system": "http://hospital.example.org/patients",
          "value": "CS-P004"
        }],
        "name": [{ "family": "陳", "given": ["清手術四"] }],
        "gender": "female",
        "birthDate": "1970-06-18"
      },
      "request": { "method": "PUT", "url": "Patient/clean-surgery-patient-004" }
    },
    {
      "fullUrl": "urn:uuid:clean-surgery-encounter-004",
      "resource": {
        "resourceType": "Encounter",
        "id": "clean-surgery-encounter-004",
        "status": "finished",
        "class": {
          "system": "http://terminology.hl7.org/CodeSystem/v3-ActCode",
          "code": "IMP",
          "display": "inpatient encounter"
        },
        "subject": { "reference": "Patient/clean-surgery-patient-004" },
        "period": {
          "start": "2025-11-15T08:30:00Z",
          "end": "2025-11-18T10:00:00Z"
        }
      },
      "request": { "method": "PUT", "url": "Encounter/clean-surgery-encounter-004" }
    },
    {
      "fullUrl": "urn:uuid:clean-surgery-procedure-004",
      "resource": {
        "resourceType": "Procedure",
        "id": "clean-surgery-procedure-004",
        "status": "completed",
        "code": {
          "coding": [{
            "system": "http://snomed.info/sct",
            "code": "71388002",
            "display": "Mastectomy"
          }]
        },
        "subject": { "reference": "Patient/clean-surgery-patient-004" },
        "encounter": { "reference": "Encounter/clean-surgery-encounter-004" },
        "performedDateTime": "2025-11-15T10:00:00Z"
      },
      "request": { "method": "PUT", "url": "Procedure/clean-surgery-procedure-004" }
    },
    {
      "fullUrl": "urn:uuid:clean-surgery-med-004",
      "resource": {
        "resourceType": "MedicationRequest",
        "id": "clean-surgery-med-004",
        "status": "completed",
        "intent": "order",
        "medicationCodeableConcept": {
          "coding": [{
            "system": "http://www.whocc.no/atc",
            "code": "J01CR02",
            "display": "Amoxicillin and clavulanic acid"
          }]
        },
        "subject": { "reference": "Patient/clean-surgery-patient-004" },
        "encounter": { "reference": "Encounter/clean-surgery-encounter-004" },
        "dosageInstruction": [{
          "timing": {
            "repeat": {
              "boundsDuration": {
                "value": 1,
                "unit": "days",
                "system": "http://unitsofmeasure.org",
                "code": "d"
              }
            }
          }
        }]
      },
      "request": { "method": "PUT", "url": "MedicationRequest/clean-surgery-med-004" }
    },
    {
      "fullUrl": "urn:uuid:clean-surgery-patient-005",
      "resource": {
        "resourceType": "Patient",
        "id": "clean-surgery-patient-005",
        "identifier": [{
          "system": "http://hospital.example.org/patients",
          "value": "CS-P005"
        }],
        "name": [{ "family": "林", "given": ["清手術五"] }],
        "gender": "male",
        "birthDate": "1963-04-30"
      },
      "request": { "method": "PUT", "url": "Patient/clean-surgery-patient-005" }
    },
    {
      "fullUrl": "urn:uuid:clean-surgery-encounter-005",
      "resource": {
        "resourceType": "Encounter",
        "id": "clean-surgery-encounter-005",
        "status": "finished",
        "class": {
          "system": "http://terminology.hl7.org/CodeSystem/v3-ActCode",
          "code": "IMP",
          "display": "inpatient encounter"
        },
        "subject": { "reference": "Patient/clean-surgery-patient-005" },
        "period": {
          "start": "2025-11-25T09:00:00Z",
          "end": "2025-11-28T11:00:00Z"
        }
      },
      "request": { "method": "PUT", "url": "Encounter/clean-surgery-encounter-005" }
    },
    {
      "fullUrl": "urn:uuid:clean-surgery-procedure-005",
      "resource": {
        "resourceType": "Procedure",
        "id": "clean-surgery-procedure-005",
        "status": "completed",
        "code": {
          "coding": [{
            "system": "http://snomed.info/sct",
            "code": "44946007",
            "display": "Herniorrhaphy"
          }]
        },
        "subject": { "reference": "Patient/clean-surgery-patient-005" },
        "encounter": { "reference": "Encounter/clean-surgery-encounter-005" },
        "performedDateTime": "2025-11-25T11:00:00Z"
      },
      "request": { "method": "PUT", "url": "Procedure/clean-surgery-procedure-005" }
    },
    {
      "fullUrl": "urn:uuid:clean-surgery-med-005",
      "resource": {
        "resourceType": "MedicationRequest",
        "id": "clean-surgery-med-005",
        "status": "completed",
        "intent": "order",
        "medicationCodeableConcept": {
          "coding": [{
            "system": "http://www.whocc.no/atc",
            "code": "J01DD04",
            "display": "Ceftriaxone"
          }]
        },
        "subject": { "reference": "Patient/clean-surgery-patient-005" },
        "encounter": { "reference": "Encounter/clean-surgery-encounter-005" },
        "dosageInstruction": [{
          "timing": {
            "repeat": {
              "boundsDuration": {
                "value": 6,
                "unit": "days",
                "system": "http://unitsofmeasure.org",
                "code": "d"
              }
            }
          }
        }]
      },
      "request": { "method": "PUT", "url": "MedicationRequest/clean-surgery-med-005" }
    },
    {
      "fullUrl": "urn:uuid:clean-surgery-patient-006",
      "resource": {
        "resourceType": "Patient",
        "id": "clean-surgery-patient-006",
        "identifier": [{
          "system": "http://hospital.example.org/patients",
          "value": "CS-P006"
        }],
        "name": [{ "family": "黃", "given": ["清手術六"] }],
        "gender": "female",
        "birthDate": "1975-09-14"
      },
      "request": { "method": "PUT", "url": "Patient/clean-surgery-patient-006" }
    },
    {
      "fullUrl": "urn:uuid:clean-surgery-encounter-006",
      "resource": {
        "resourceType": "Encounter",
        "id": "clean-surgery-encounter-006",
        "status": "finished",
        "class": {
          "system": "http://terminology.hl7.org/CodeSystem/v3-ActCode",
          "code": "IMP",
          "display": "inpatient encounter"
        },
        "subject": { "reference": "Patient/clean-surgery-patient-006" },
        "period": {
          "start": "2025-12-01T10:00:00Z",
          "end": "2025-12-04T12:00:00Z"
        }
      },
      "request": { "method": "PUT", "url": "Encounter/clean-surgery-encounter-006" }
    },
    {
      "fullUrl": "urn:uuid:clean-surgery-procedure-006",
      "resource": {
        "resourceType": "Procedure",
        "id": "clean-surgery-procedure-006",
        "status": "completed",
        "code": {
          "coding": [{
            "system": "http://snomed.info/sct",
            "code": "179467005",
            "display": "Cholecystectomy"
          }]
        },
        "subject": { "reference": "Patient/clean-surgery-patient-006" },
        "encounter": { "reference": "Encounter/clean-surgery-encounter-006" },
        "performedDateTime": "2025-12-01T12:00:00Z"
      },
      "request": { "method": "PUT", "url": "Procedure/clean-surgery-procedure-006" }
    },
    {
      "fullUrl": "urn:uuid:clean-surgery-med-006",
      "resource": {
        "resourceType": "MedicationRequest",
        "id": "clean-surgery-med-006",
        "status": "completed",
        "intent": "order",
        "medicationCodeableConcept": {
          "coding": [{
            "system": "http://www.whocc.no/atc",
            "code": "J01CR02",
            "display": "Amoxicillin and clavulanic acid"
          }]
        },
        "subject": { "reference": "Patient/clean-surgery-patient-006" },
        "encounter": { "reference": "Encounter/clean-surgery-encounter-006" },
        "dosageInstruction": [{
          "timing": {
            "repeat": {
              "boundsDuration": {
                "value": 2,
                "unit": "days",
                "system": "http://unitsofmeasure.org",
                "code": "d"
              }
            }
          }
        }]
      },
      "request": { "method": "PUT", "url": "MedicationRequest/clean-surgery-med-006" }
    }
  ]
}
