{
  "resourceType": "Bundle",
  "type": "transaction",
  "entry": [
    {
      "resource": {
        "resourceType": "Patient",
        "id": "cesarean-patient-001",
        "gender": "female",
        "birthDate": "1990-01-15"
      },
      "request": {"method": "PUT", "url": "Patient/cesarean-patient-001"}
    },
    {
      "resource": {
        "resourceType": "Encounter",
        "id": "cesarean-enc-001",
        "status": "finished",
        "class": {"system": "http://terminology.hl7.org/CodeSystem/v3-ActCode", "code": "IMP"},
        "subject": {"reference": "Patient/cesarean-patient-001"},
        "period": {"start": "2025-10-10T08:00:00Z", "end": "2025-10-13T10:00:00Z"}
      },
      "request": {"method": "PUT", "url": "Encounter/cesarean-enc-001"}
    },
    {
      "resource": {
        "resourceType": "Condition",
        "id": "cesarean-cond-001",
        "code": {"coding": [{"system": "http://hl7.org/fhir/sid/icd-10-cm", "code": "O80", "display": "單胎自然生產"}]},
        "subject": {"reference": "Patient/cesarean-patient-001"},
        "encounter": {"reference": "Encounter/cesarean-enc-001"}
      },
      "request": {"method": "PUT", "url": "Condition/cesarean-cond-001"}
    },
    {
      "resource": {
        "resourceType": "Procedure",
        "id": "cesarean-proc-001",
        "status": "completed",
        "code": {"coding": [{"system": "urn:oid:2.16.886.101.20003.20014", "code": "80402C", "display": "剖腹生產"}]},
        "subject": {"reference": "Patient/cesarean-patient-001"},
        "encounter": {"reference": "Encounter/cesarean-enc-001"},
        "performedDateTime": "2025-10-11T10:30:00Z"
      },
      "request": {"method": "PUT", "url": "Procedure/cesarean-proc-001"}
    },
    {
      "resource": {
        "resourceType": "Patient",
        "id": "cesarean-patient-002",
        "gender": "female",
        "birthDate": "1992-03-20"
      },
      "request": {"method": "PUT", "url": "Patient/cesarean-patient-002"}
    },
    {
      "resource": {
        "resourceType": "Encounter",
        "id": "cesarean-enc-002",
        "status": "finished",
        "class": {"system": "http://terminology.hl7.org/CodeSystem/v3-ActCode", "code": "IMP"},
        "subject": {"reference": "Patient/cesarean-patient-002"},
        "period": {"start": "2025-10-15T09:00:00Z", "end": "2025-10-18T11:00:00Z"}
      },
      "request": {"method": "PUT", "url": "Encounter/cesarean-enc-002"}
    },
    {
      "resource": {
        "resourceType": "Condition",
        "id": "cesarean-cond-002",
        "code": {"coding": [{"system": "http://hl7.org/fhir/sid/icd-10-cm", "code": "O82", "display": "剖腹生產"}]},
        "subject": {"reference": "Patient/cesarean-patient-002"},
        "encounter": {"reference": "Encounter/cesarean-enc-002"}
      },
      "request": {"method": "PUT", "url": "Condition/cesarean-cond-002"}
    },
    {
      "resource": {
        "resourceType": "Procedure",
        "id": "cesarean-proc-002",
        "status": "completed",
        "code": {"coding": [{"system": "urn:oid:2.16.886.101.20003.20014", "code": "80402C", "display": "剖腹生產"}]},
        "subject": {"reference": "Patient/cesarean-patient-002"},
        "encounter": {"reference": "Encounter/cesarean-enc-002"},
        "performedDateTime": "2025-10-16T14:20:00Z"
      },
      "request": {"method": "PUT", "url": "Procedure/cesarean-proc-002"}
    },
    {
      "resource": {
        "resourceType": "Patient",
        "id": "cesarean-patient-003",
        "gender": "female",
        "birthDate": "1988-05-12"
      },
      "request": {"method": "PUT", "url": "Patient/cesarean-patient-003"}
    },
    {
      "resource": {
        "resourceType": "Encounter",
        "id": "cesarean-enc-003",
        "status": "finished",
        "class": {"system": "http://terminology.hl7.org/CodeSystem/v3-ActCode", "code": "IMP"},
        "subject": {"reference": "Patient/cesarean-patient-003"},
        "period": {"start": "2025-11-01T07:30:00Z", "end": "2025-11-04T09:00:00Z"}
      },
      "request": {"method": "PUT", "url": "Encounter/cesarean-enc-003"}
    },
    {
      "resource": {
        "resourceType": "Condition",
        "id": "cesarean-cond-003",
        "code": {"coding": [{"system": "http://hl7.org/fhir/sid/icd-10-cm", "code": "O80", "display": "單胎自然生產"}]},
        "subject": {"reference": "Patient/cesarean-patient-003"},
        "encounter": {"reference": "Encounter/cesarean-enc-003"}
      },
      "request": {"method": "PUT", "url": "Condition/cesarean-cond-003"}
    },
    {
      "resource": {
        "resourceType": "Procedure",
        "id": "cesarean-proc-003",
        "status": "completed",
        "code": {"coding": [{"system": "urn:oid:2.16.886.101.20003.20014", "code": "80425C", "display": "自然生產"}]},
        "subject": {"reference": "Patient/cesarean-patient-003"},
        "encounter": {"reference": "Encounter/cesarean-enc-003"},
        "performedDateTime": "2025-11-02T11:45:00Z"
      },
      "request": {"method": "PUT", "url": "Procedure/cesarean-proc-003"}
    },
    {
      "resource": {
        "resourceType": "Patient",
        "id": "cesarean-patient-004",
        "gender": "female",
        "birthDate": "1991-07-25"
      },
      "request": {"method": "PUT", "url": "Patient/cesarean-patient-004"}
    },
    {
      "resource": {
        "resourceType": "Encounter",
        "id": "cesarean-enc-004",
        "status": "finished",
        "class": {"system": "http://terminology.hl7.org/CodeSystem/v3-ActCode", "code": "IMP"},
        "subject": {"reference": "Patient/cesarean-patient-004"},
        "period": {"start": "2025-11-10T08:00:00Z", "end": "2025-11-13T10:30:00Z"}
      },
      "request": {"method": "PUT", "url": "Encounter/cesarean-enc-004"}
    },
    {
      "resource": {
        "resourceType": "Condition",
        "id": "cesarean-cond-004",
        "code": {"coding": [{"system": "http://hl7.org/fhir/sid/icd-10-cm", "code": "O82", "display": "剖腹生產"}]},
        "subject": {"reference": "Patient/cesarean-patient-004"},
        "encounter": {"reference": "Encounter/cesarean-enc-004"}
      },
      "request": {"method": "PUT", "url": "Condition/cesarean-cond-004"}
    },
    {
      "resource": {
        "resourceType": "Procedure",
        "id": "cesarean-proc-004",
        "status": "completed",
        "code": {"coding": [{"system": "urn:oid:2.16.886.101.20003.20014", "code": "80402C", "display": "剖腹生產"}]},
        "subject": {"reference": "Patient/cesarean-patient-004"},
        "encounter": {"reference": "Encounter/cesarean-enc-004"},
        "performedDateTime": "2025-11-11T09:15:00Z"
      },
      "request": {"method": "PUT", "url": "Procedure/cesarean-proc-004"}
    },
    {
      "resource": {
        "resourceType": "Patient",
        "id": "cesarean-patient-005",
        "gender": "female",
        "birthDate": "1989-09-30"
      },
      "request": {"method": "PUT", "url": "Patient/cesarean-patient-005"}
    },
    {
      "resource": {
        "resourceType": "Encounter",
        "id": "cesarean-enc-005",
        "status": "finished",
        "class": {"system": "http://terminology.hl7.org/CodeSystem/v3-ActCode", "code": "IMP"},
        "subject": {"reference": "Patient/cesarean-patient-005"},
        "period": {"start": "2025-11-18T10:00:00Z", "end": "2025-11-21T12:00:00Z"}
      },
      "request": {"method": "PUT", "url": "Encounter/cesarean-enc-005"}
    },
    {
      "resource": {
        "resourceType": "Condition",
        "id": "cesarean-cond-005",
        "code": {"coding": [{"system": "http://hl7.org/fhir/sid/icd-10-cm", "code": "O80", "display": "單胎自然生產"}]},
        "subject": {"reference": "Patient/cesarean-patient-005"},
        "encounter": {"reference": "Encounter/cesarean-enc-005"}
      },
      "request": {"method": "PUT", "url": "Condition/cesarean-cond-005"}
    },
    {
      "resource": {
        "resourceType": "Procedure",
        "id": "cesarean-proc-005",
        "status": "completed",
        "code": {"coding": [{"system": "urn:oid:2.16.886.101.20003.20014", "code": "80425C", "display": "自然生產"}]},
        "subject": {"reference": "Patient/cesarean-patient-005"},
        "encounter": {"reference": "Encounter/cesarean-enc-005"},
        "performedDateTime": "2025-11-19T13:30:00Z"
      },
      "request": {"method": "PUT", "url": "Procedure/cesarean-proc-005"}
    },
    {
      "resource": {
        "resourceType": "Patient",
        "id": "cesarean-patient-006",
        "gender": "female",
        "birthDate": "1993-11-08"
      },
      "request": {"method": "PUT", "url": "Patient/cesarean-patient-006"}
    },
    {
      "resource": {
        "resourceType": "Encounter",
        "id": "cesarean-enc-006",
        "status": "finished",
        "class": {"system": "http://terminology.hl7.org/CodeSystem/v3-ActCode", "code": "IMP"},
        "subject": {"reference": "Patient/cesarean-patient-006"},
        "period": {"start": "2025-11-25T09:00:00Z", "end": "2025-11-28T11:00:00Z"}
      },
      "request": {"method": "PUT", "url": "Encounter/cesarean-enc-006"}
    },
    {
      "resource": {
        "resourceType": "Condition",
        "id": "cesarean-cond-006",
        "code": {"coding": [{"system": "http://hl7.org/fhir/sid/icd-10-cm", "code": "O82", "display": "剖腹生產"}]},
        "subject": {"reference": "Patient/cesarean-patient-006"},
        "encounter": {"reference": "Encounter/cesarean-enc-006"}
      },
      "request": {"method": "PUT", "url": "Condition/cesarean-cond-006"}
    },
    {
      "resource": {
        "resourceType": "Procedure",
        "id": "cesarean-proc-006",
        "status": "completed",
        "code": {"coding": [{"system": "urn:oid:2.16.886.101.20003.20014", "code": "80402C", "display": "剖腹生產"}]},
        "subject": {"reference": "Patient/cesarean-patient-006"},
        "encounter": {"reference": "Encounter/cesarean-enc-006"},
        "performedDateTime": "2025-11-26T10:45:00Z"
      },
      "request": {"method": "PUT", "url": "Procedure/cesarean-proc-006"}
    },
    {
      "resource": {
        "resourceType": "Patient",
        "id": "cesarean-patient-007",
        "gender": "female",
        "birthDate": "1990-12-15"
      },
      "request": {"method": "PUT", "url": "Patient/cesarean-patient-007"}
    },
    {
      "resource": {
        "resourceType": "Encounter",
        "id": "cesarean-enc-007",
        "status": "finished",
        "class": {"system": "http://terminology.hl7.org/CodeSystem/v3-ActCode", "code": "IMP"},
        "subject": {"reference": "Patient/cesarean-patient-007"},
        "period": {"start": "2025-12-01T08:30:00Z", "end": "2025-12-04T10:00:00Z"}
      },
      "request": {"method": "PUT", "url": "Encounter/cesarean-enc-007"}
    },
    {
      "resource": {
        "resourceType": "Condition",
        "id": "cesarean-cond-007",
        "code": {"coding": [{"system": "http://hl7.org/fhir/sid/icd-10-cm", "code": "O82", "display": "剖腹生產"}]},
        "subject": {"reference": "Patient/cesarean-patient-007"},
        "encounter": {"reference": "Encounter/cesarean-enc-007"}
      },
      "request": {"method": "PUT", "url": "Condition/cesarean-cond-007"}
    },
    {
      "resource": {
        "resourceType": "Procedure",
        "id": "cesarean-proc-007",
        "status": "completed",
        "code": {"coding": [{"system": "urn:oid:2.16.886.101.20003.20014", "code": "80402C", "display": "剖腹生產"}]},
        "subject": {"reference": "Patient/cesarean-patient-007"},
        "encounter": {"reference": "Encounter/cesarean-enc-007"},
        "performedDateTime": "2025-12-02T11:20:00Z"
      },
      "request": {"method": "PUT", "url": "Procedure/cesarean-proc-007"}
    },
    {
      "resource": {
        "resourceType": "Patient",
        "id": "cesarean-patient-008",
        "gender": "female",
        "birthDate": "1992-02-18"
      },
      "request": {"method": "PUT", "url": "Patient/cesarean-patient-008"}
    },
    {
      "resource": {
        "resourceType": "Encounter",
        "id": "cesarean-enc-008",
        "status": "finished",
        "class": {"system": "http://terminology.hl7.org/CodeSystem/v3-ActCode", "code": "IMP"},
        "subject": {"reference": "Patient/cesarean-patient-008"},
        "period": {"start": "2025-12-05T07:00:00Z", "end": "2025-12-08T09:30:00Z"}
      },
      "request": {"method": "PUT", "url": "Encounter/cesarean-enc-008"}
    },
    {
      "resource": {
        "resourceType": "Condition",
        "id": "cesarean-cond-008",
        "code": {"coding": [{"system": "http://hl7.org/fhir/sid/icd-10-cm", "code": "O80", "display": "單胎自然生產"}]},
        "subject": {"reference": "Patient/cesarean-patient-008"},
        "encounter": {"reference": "Encounter/cesarean-enc-008"}
      },
      "request": {"method": "PUT", "url": "Condition/cesarean-cond-008"}
    },
    {
      "resource": {
        "resourceType": "Procedure",
        "id": "cesarean-proc-008",
        "status": "completed",
        "code": {"coding": [{"system": "urn:oid:2.16.886.101.20003.20014", "code": "80425C", "display": "自然生產"}]},
        "subject": {"reference": "Patient/cesarean-patient-008"},
        "encounter": {"reference": "Encounter/cesarean-enc-008"},
        "performedDateTime": "2025-12-06T12:10:00Z"
      },
      "request": {"method": "PUT", "url": "Procedure/cesarean-proc-008"}
    },
    {
      "resource": {
        "resourceType": "Patient",
        "id": "cesarean-patient-009",
        "gender": "female",
        "birthDate": "1991-04-22"
      },
      "request": {"method": "PUT", "url": "Patient/cesarean-patient-009"}
    },
    {
      "resource": {
        "resourceType": "Encounter",
        "id": "cesarean-enc-009",
        "status": "finished",
        "class": {"system": "http://terminology.hl7.org/CodeSystem/v3-ActCode", "code": "IMP"},
        "subject": {"reference": "Patient/cesarean-patient-009"},
        "period": {"start": "2025-12-10T09:00:00Z", "end": "2025-12-13T11:00:00Z"}
      },
      "request": {"method": "PUT", "url": "Encounter/cesarean-enc-009"}
    },
    {
      "resource": {
        "resourceType": "Condition",
        "id": "cesarean-cond-009",
        "code": {"coding": [{"system": "http://hl7.org/fhir/sid/icd-10-cm", "code": "O82", "display": "剖腹生產"}]},
        "subject": {"reference": "Patient/cesarean-patient-009"},
        "encounter": {"reference": "Encounter/cesarean-enc-009"}
      },
      "request": {"method": "PUT", "url": "Condition/cesarean-cond-009"}
    },
    {
      "resource": {
        "resourceType": "Procedure",
        "id": "cesarean-proc-009",
        "status": "completed",
        "code": {"coding": [{"system": "urn:oid:2.16.886.101.20003.20014", "code": "80402C", "display": "剖腹生產"}]},
        "subject": {"reference": "Patient/cesarean-patient-009"},
        "encounter": {"reference": "Encounter/cesarean-enc-009"},
        "performedDateTime": "2025-12-11T10:30:00Z"
      },
      "request": {"method": "PUT", "url": "Procedure/cesarean-proc-009"}
    },
    {
      "resource": {
        "resourceType": "Patient",
        "id": "cesarean-patient-010",
        "gender": "female",
        "birthDate": "1989-06-05"
      },
      "request": {"method": "PUT", "url": "Patient/cesarean-patient-010"}
    },
    {
      "resource": {
        "resourceType": "Encounter",
        "id": "cesarean-enc-010",
        "status": "finished",
        "class": {"system": "http://terminology.hl7.org/CodeSystem/v3-ActCode", "code": "IMP"},
        "subject": {"reference": "Patient/cesarean-patient-010"},
        "period": {"start": "2025-10-20T08:00:00Z", "end": "2025-10-23T10:00:00Z"}
      },
      "request": {"method": "PUT", "url": "Encounter/cesarean-enc-010"}
    },
    {
      "resource": {
        "resourceType": "Condition",
        "id": "cesarean-cond-010",
        "code": {"coding": [{"system": "http://hl7.org/fhir/sid/icd-10-cm", "code": "O80", "display": "單胎自然生產"}]},
        "subject": {"reference": "Patient/cesarean-patient-010"},
        "encounter": {"reference": "Encounter/cesarean-enc-010"}
      },
      "request": {"method": "PUT", "url": "Condition/cesarean-cond-010"}
    },
    {
      "resource": {
        "resourceType": "Procedure",
        "id": "cesarean-proc-010",
        "status": "completed",
        "code": {"coding": [{"system": "urn:oid:2.16.886.101.20003.20014", "code": "80425C", "display": "自然生產"}]},
        "subject": {"reference": "Patient/cesarean-patient-010"},
        "encounter": {"reference": "Encounter/cesarean-enc-010"},
        "performedDateTime": "2025-10-21T11:45:00Z"
      },
      "request": {"method": "PUT", "url": "Procedure/cesarean-proc-010"}
    },
    {
      "resource": {
        "resourceType": "Patient",
        "id": "cesarean-patient-011",
        "gender": "female",
        "birthDate": "1993-08-12"
      },
      "request": {"method": "PUT", "url": "Patient/cesarean-patient-011"}
    },
    {
      "resource": {
        "resourceType": "Encounter",
        "id": "cesarean-enc-011",
        "status": "finished",
        "class": {"system": "http://terminology.hl7.org/CodeSystem/v3-ActCode", "code": "IMP"},
        "subject": {"reference": "Patient/cesarean-patient-011"},
        "period": {"start": "2025-10-25T09:30:00Z", "end": "2025-10-28T11:30:00Z"}
      },
      "request": {"method": "PUT", "url": "Encounter/cesarean-enc-011"}
    },
    {
      "resource": {
        "resourceType": "Condition",
        "id": "cesarean-cond-011",
        "code": {"coding": [{"system": "http://hl7.org/fhir/sid/icd-10-cm", "code": "O82", "display": "剖腹生產"}]},
        "subject": {"reference": "Patient/cesarean-patient-011"},
        "encounter": {"reference": "Encounter/cesarean-enc-011"}
      },
      "request": {"method": "PUT", "url": "Condition/cesarean-cond-011"}
    },
    {
      "resource": {
        "resourceType": "Procedure",
        "id": "cesarean-proc-011",
        "status": "completed",
        "code": {"coding": [{"system": "urn:oid:2.16.886.101.20003.20014", "code": "80402C", "display": "剖腹生產"}]},
        "subject": {"reference": "Patient/cesarean-patient-011"},
        "encounter": {"reference": "Encounter/cesarean-enc-011"},
        "performedDateTime": "2025-10-26T13:15:00Z"
      },
      "request": {"method": "PUT", "url": "Procedure/cesarean-proc-011"}
    },
    {
      "resource": {
        "resourceType": "Patient",
        "id": "cesarean-patient-012",
        "gender": "female",
        "birthDate": "1990-10-28"
      },
      "request": {"method": "PUT", "url": "Patient/cesarean-patient-012"}
    },
    {
      "resource": {
        "resourceType": "Encounter",
        "id": "cesarean-enc-012",
        "status": "finished",
        "class": {"system": "http://terminology.hl7.org/CodeSystem/v3-ActCode", "code": "IMP"},
        "subject": {"reference": "Patient/cesarean-patient-012"},
        "period": {"start": "2025-11-05T08:00:00Z", "end": "2025-11-08T10:00:00Z"}
      },
      "request": {"method": "PUT", "url": "Encounter/cesarean-enc-012"}
    },
    {
      "resource": {
        "resourceType": "Condition",
        "id": "cesarean-cond-012",
        "code": {"coding": [{"system": "http://hl7.org/fhir/sid/icd-10-cm", "code": "O82", "display": "剖腹生產"}]},
        "subject": {"reference": "Patient/cesarean-patient-012"},
        "encounter": {"reference": "Encounter/cesarean-enc-012"}
      },
      "request": {"method": "PUT", "url": "Condition/cesarean-cond-012"}
    },
    {
      "resource": {
        "resourceType": "Procedure",
        "id": "cesarean-proc-012",
        "status": "completed",
        "code": {"coding": [{"system": "urn:oid:2.16.886.101.20003.20014", "code": "80402C", "display": "剖腹生產"}]},
        "subject": {"reference": "Patient/cesarean-patient-012"},
        "encounter": {"reference": "Encounter/cesarean-enc-012"},
        "performedDateTime": "2025-11-06T09:30:00Z"
      },
      "request": {"method": "PUT", "url": "Procedure/cesarean-proc-012"}
    },
    {
      "resource": {
        "resourceType": "Patient",
        "id": "cesarean-patient-013",
        "gender": "female",
        "birthDate": "1992-12-03"
      },
      "request": {"method": "PUT", "url": "Patient/cesarean-patient-013"}
    },
    {
      "resource": {
        "resourceType": "Encounter",
        "id": "cesarean-enc-013",
        "status": "finished",
        "class": {"system": "http://terminology.hl7.org/CodeSystem/v3-ActCode", "code": "IMP"},
        "subject": {"reference": "Patient/cesarean-patient-013"},
        "period": {"start": "2025-11-12T10:00:00Z", "end": "2025-11-15T12:00:00Z"}
      },
      "request": {"method": "PUT", "url": "Encounter/cesarean-enc-013"}
    },
    {
      "resource": {
        "resourceType": "Condition",
        "id": "cesarean-cond-013",
        "code": {"coding": [{"system": "http://hl7.org/fhir/sid/icd-10-cm", "code": "O80", "display": "單胎自然生產"}]},
        "subject": {"reference": "Patient/cesarean-patient-013"},
        "encounter": {"reference": "Encounter/cesarean-enc-013"}
      },
      "request": {"method": "PUT", "url": "Condition/cesarean-cond-013"}
    },
    {
      "resource": {
        "resourceType": "Procedure",
        "id": "cesarean-proc-013",
        "status": "completed",
        "code": {"coding": [{"system": "urn:oid:2.16.886.101.20003.20014", "code": "80425C", "display": "自然生產"}]},
        "subject": {"reference": "Patient/cesarean-patient-013"},
        "encounter": {"reference": "Encounter/cesarean-enc-013"},
        "performedDateTime": "2025-11-13T14:20:00Z"
      },
      "request": {"method": "PUT", "url": "Procedure/cesarean-proc-013"}
    },
    {
      "resource": {
        "resourceType": "Patient",
        "id": "cesarean-patient-014",
        "gender": "female",
        "birthDate": "1991-01-19"
      },
      "request": {"method": "PUT", "url": "Patient/cesarean-patient-014"}
    },
    {
      "resource": {
        "resourceType": "Encounter",
        "id": "cesarean-enc-014",
        "status": "finished",
        "class": {"system": "http://terminology.hl7.org/CodeSystem/v3-ActCode", "code": "IMP"},
        "subject": {"reference": "Patient/cesarean-patient-014"},
        "period": {"start": "2025-11-20T08:30:00Z", "end": "2025-11-23T10:30:00Z"}
      },
      "request": {"method": "PUT", "url": "Encounter/cesarean-enc-014"}
    },
    {
      "resource": {
        "resourceType": "Condition",
        "id": "cesarean-cond-014",
        "code": {"coding": [{"system": "http://hl7.org/fhir/sid/icd-10-cm", "code": "O82", "display": "剖腹生產"}]},
        "subject": {"reference": "Patient/cesarean-patient-014"},
        "encounter": {"reference": "Encounter/cesarean-enc-014"}
      },
      "request": {"method": "PUT", "url": "Condition/cesarean-cond-014"}
    },
    {
      "resource": {
        "resourceType": "Procedure",
        "id": "cesarean-proc-014",
        "status": "completed",
        "code": {"coding": [{"system": "urn:oid:2.16.886.101.20003.20014", "code": "80402C", "display": "剖腹生產"}]},
        "subject": {"reference": "Patient/cesarean-patient-014"},
        "encounter": {"reference": "Encounter/cesarean-enc-014"},
        "performedDateTime": "2025-11-21T11:00:00Z"
      },
      "request": {"method": "PUT", "url": "Procedure/cesarean-proc-014"}
    },
    {
      "resource": {
        "resourceType": "Patient",
        "id": "cesarean-patient-015",
        "gender": "female",
        "birthDate": "1989-03-25"
      },
      "request": {"method": "PUT", "url": "Patient/cesarean-patient-015"}
    },
    {
      "resource": {
        "resourceType": "Encounter",
        "id": "cesarean-enc-015",
        "status": "finished",
        "class": {"system": "http://terminology.hl7.org/CodeSystem/v3-ActCode", "code": "IMP"},
        "subject": {"reference": "Patient/cesarean-patient-015"},
        "period": {"start": "2025-11-27T09:00:00Z", "end": "2025-11-30T11:00:00Z"}
      },
      "request": {"method": "PUT", "url": "Encounter/cesarean-enc-015"}
    },
    {
      "resource": {
        "resourceType": "Condition",
        "id": "cesarean-cond-015",
        "code": {"coding": [{"system": "http://hl7.org/fhir/sid/icd-10-cm", "code": "O82", "display": "剖腹生產"}]},
        "subject": {"reference": "Patient/cesarean-patient-015"},
        "encounter": {"reference": "Encounter/cesarean-enc-015"}
      },
      "request": {"method": "PUT", "url": "Condition/cesarean-cond-015"}
    },
    {
      "resource": {
        "resourceType": "Procedure",
        "id": "cesarean-proc-015",
        "status": "completed",
        "code": {"coding": [{"system": "urn:oid:2.16.886.101.20003.20014", "code": "80402C", "display": "剖腹生產"}]},
        "subject": {"reference": "Patient/cesarean-patient-015"},
        "encounter": {"reference": "Encounter/cesarean-enc-015"},
        "performedDateTime": "2025-11-28T12:30:00Z"
      },
      "request": {"method": "PUT", "url": "Procedure/cesarean-proc-015"}
    },
    {
      "resource": {
        "resourceType": "Patient",
        "id": "cesarean-patient-016",
        "gender": "female",
        "birthDate": "1993-05-07"
      },
      "request": {"method": "PUT", "url": "Patient/cesarean-patient-016"}
    },
    {
      "resource": {
        "resourceType": "Encounter",
        "id": "cesarean-enc-016",
        "status": "finished",
        "class": {"system": "http://terminology.hl7.org/CodeSystem/v3-ActCode", "code": "IMP"},
        "subject": {"reference": "Patient/cesarean-patient-016"},
        "period": {"start": "2025-12-02T07:30:00Z", "end": "2025-12-05T09:30:00Z"}
      },
      "request": {"method": "PUT", "url": "Encounter/cesarean-enc-016"}
    },
    {
      "resource": {
        "resourceType": "Condition",
        "id": "cesarean-cond-016",
        "code": {"coding": [{"system": "http://hl7.org/fhir/sid/icd-10-cm", "code": "O80", "display": "單胎自然生產"}]},
        "subject": {"reference": "Patient/cesarean-patient-016"},
        "encounter": {"reference": "Encounter/cesarean-enc-016"}
      },
      "request": {"method": "PUT", "url": "Condition/cesarean-cond-016"}
    },
    {
      "resource": {
        "resourceType": "Procedure",
        "id": "cesarean-proc-016",
        "status": "completed",
        "code": {"coding": [{"system": "urn:oid:2.16.886.101.20003.20014", "code": "80425C", "display": "自然生產"}]},
        "subject": {"reference": "Patient/cesarean-patient-016"},
        "encounter": {"reference": "Encounter/cesarean-enc-016"},
        "performedDateTime": "2025-12-03T13:45:00Z"
      },
      "request": {"method": "PUT", "url": "Procedure/cesarean-proc-016"}
    }
  ]
}
