{
  "resourceType": "Bundle",
  "type": "transaction",
  "entry": [
    {
      "fullUrl": "urn:uuid:patient-antithromb-1",
      "resource": {
        "resourceType": "Patient",
        "id": "ANTITHROMB-CROSS-P1",
        "gender": "male",
        "birthDate": "1958-07-15",
        "name": [{"text": "張建國", "family": "Zhang", "given": ["Jianguo"]}]
      },
      "request": {"method": "PUT", "url": "Patient/ANTITHROMB-CROSS-P1"}
    },
    {
      "fullUrl": "urn:uuid:patient-antithromb-2",
      "resource": {
        "resourceType": "Patient",
        "id": "ANTITHROMB-CROSS-P2",
        "gender": "female",
        "birthDate": "1962-04-20",
        "name": [{"text": "李淑芬", "family": "Li", "given": ["Shufen"]}]
      },
      "request": {"method": "PUT", "url": "Patient/ANTITHROMB-CROSS-P2"}
    },
    {
      "fullUrl": "urn:uuid:patient-antithromb-3",
      "resource": {
        "resourceType": "Patient",
        "id": "ANTITHROMB-CROSS-P3",
        "gender": "male",
        "birthDate": "1965-11-30",
        "name": [{"text": "王志明", "family": "Wang", "given": ["Zhiming"]}]
      },
      "request": {"method": "PUT", "url": "Patient/ANTITHROMB-CROSS-P3"}
    },
    {
      "fullUrl": "urn:uuid:enc-antithromb-1a",
      "resource": {
        "resourceType": "Encounter",
        "id": "ANTITHROMB-E1A",
        "status": "finished",
        "class": {"system": "http://terminology.hl7.org/CodeSystem/v3-ActCode", "code": "AMB"},
        "subject": {"reference": "Patient/ANTITHROMB-CROSS-P1"},
        "serviceProvider": {"reference": "Organization/HOSPITAL-C"},
        "period": {"start": "2025-10-02T09:00:00+08:00", "end": "2025-10-02T09:30:00+08:00"}
      },
      "request": {"method": "PUT", "url": "Encounter/ANTITHROMB-E1A"}
    },
    {
      "fullUrl": "urn:uuid:med-antithromb-1a",
      "resource": {
        "resourceType": "MedicationRequest",
        "id": "ANTITHROMB-M1A",
        "status": "completed",
        "intent": "order",
        "medicationCodeableConcept": {
          "coding": [{"system": "http://www.whocc.no/atc", "code": "B01AC06", "display": "Acetylsalicylic acid"}],
          "text": "阿斯匹靈腸溶錠 Aspirin 100mg"
        },
        "subject": {"reference": "Patient/ANTITHROMB-CROSS-P1"},
        "encounter": {"reference": "Encounter/ANTITHROMB-E1A"},
        "authoredOn": "2025-10-02T09:00:00+08:00",
        "dosageInstruction": [{
          "timing": {"repeat": {"boundsPeriod": {"start": "2025-10-02", "end": "2025-10-29"}, "frequency": 1, "period": 1, "periodUnit": "d"}},
          "doseAndRate": [{"doseQuantity": {"value": 1, "unit": "tablet"}}]
        }],
        "dispenseRequest": {
          "validityPeriod": {"start": "2025-10-02", "end": "2025-10-29"},
          "quantity": {"value": 28, "unit": "tablet"},
          "expectedSupplyDuration": {"value": 28, "unit": "days", "system": "http://unitsofmeasure.org", "code": "d"}
        }
      },
      "request": {"method": "PUT", "url": "MedicationRequest/ANTITHROMB-M1A"}
    },
    {
      "fullUrl": "urn:uuid:enc-antithromb-1b",
      "resource": {
        "resourceType": "Encounter",
        "id": "ANTITHROMB-E1B",
        "status": "finished",
        "class": {"system": "http://terminology.hl7.org/CodeSystem/v3-ActCode", "code": "AMB"},
        "subject": {"reference": "Patient/ANTITHROMB-CROSS-P1"},
        "serviceProvider": {"reference": "Organization/HOSPITAL-D"},
        "period": {"start": "2025-10-09T14:00:00+08:00", "end": "2025-10-09T14:30:00+08:00"}
      },
      "request": {"method": "PUT", "url": "Encounter/ANTITHROMB-E1B"}
    },
    {
      "fullUrl": "urn:uuid:med-antithromb-1b",
      "resource": {
        "resourceType": "MedicationRequest",
        "id": "ANTITHROMB-M1B",
        "status": "completed",
        "intent": "order",
        "medicationCodeableConcept": {
          "coding": [{"system": "http://www.whocc.no/atc", "code": "B01AC04", "display": "Clopidogrel"}],
          "text": "保栓通 Clopidogrel 75mg"
        },
        "subject": {"reference": "Patient/ANTITHROMB-CROSS-P1"},
        "encounter": {"reference": "Encounter/ANTITHROMB-E1B"},
        "authoredOn": "2025-10-09T14:00:00+08:00",
        "dosageInstruction": [{
          "timing": {"repeat": {"boundsPeriod": {"start": "2025-10-09", "end": "2025-11-05"}, "frequency": 1, "period": 1, "periodUnit": "d"}},
          "doseAndRate": [{"doseQuantity": {"value": 1, "unit": "tablet"}}]
        }],
        "dispenseRequest": {
          "validityPeriod": {"start": "2025-10-09", "end": "2025-11-05"},
          "quantity": {"value": 28, "unit": "tablet"},
          "expectedSupplyDuration": {"value": 28, "unit": "days", "system": "http://unitsofmeasure.org", "code": "d"}
        }
      },
      "request": {"method": "PUT", "url": "MedicationRequest/ANTITHROMB-M1B"}
    },
    {
      "fullUrl": "urn:uuid:enc-antithromb-2a",
      "resource": {
        "resourceType": "Encounter",
        "id": "ANTITHROMB-E2A",
        "status": "finished",
        "class": {"system": "http://terminology.hl7.org/CodeSystem/v3-ActCode", "code": "AMB"},
        "subject": {"reference": "Patient/ANTITHROMB-CROSS-P2"},
        "serviceProvider": {"reference": "Organization/HOSPITAL-C"},
        "period": {"start": "2025-10-04T10:00:00+08:00", "end": "2025-10-04T10:30:00+08:00"}
      },
      "request": {"method": "PUT", "url": "Encounter/ANTITHROMB-E2A"}
    },
    {
      "fullUrl": "urn:uuid:med-antithromb-2a",
      "resource": {
        "resourceType": "MedicationRequest",
        "id": "ANTITHROMB-M2A",
        "status": "completed",
        "intent": "order",
        "medicationCodeableConcept": {
          "coding": [{"system": "http://www.whocc.no/atc", "code": "B01AA03", "display": "Warfarin"}],
          "text": "可邁丁 Warfarin 5mg"
        },
        "subject": {"reference": "Patient/ANTITHROMB-CROSS-P2"},
        "encounter": {"reference": "Encounter/ANTITHROMB-E2A"},
        "authoredOn": "2025-10-04T10:00:00+08:00",
        "dosageInstruction": [{
          "timing": {"repeat": {"boundsPeriod": {"start": "2025-10-04", "end": "2025-10-31"}, "frequency": 1, "period": 1, "periodUnit": "d"}},
          "doseAndRate": [{"doseQuantity": {"value": 1, "unit": "tablet"}}]
        }],
        "dispenseRequest": {
          "validityPeriod": {"start": "2025-10-04", "end": "2025-10-31"},
          "quantity": {"value": 28, "unit": "tablet"},
          "expectedSupplyDuration": {"value": 28, "unit": "days", "system": "http://unitsofmeasure.org", "code": "d"}
        }
      },
      "request": {"method": "PUT", "url": "MedicationRequest/ANTITHROMB-M2A"}
    },
    {
      "fullUrl": "urn:uuid:enc-antithromb-2b",
      "resource": {
        "resourceType": "Encounter",
        "id": "ANTITHROMB-E2B",
        "status": "finished",
        "class": {"system": "http://terminology.hl7.org/CodeSystem/v3-ActCode", "code": "AMB"},
        "subject": {"reference": "Patient/ANTITHROMB-CROSS-P2"},
        "serviceProvider": {"reference": "Organization/HOSPITAL-D"},
        "period": {"start": "2025-10-11T11:00:00+08:00", "end": "2025-10-11T11:30:00+08:00"}
      },
      "request": {"method": "PUT", "url": "Encounter/ANTITHROMB-E2B"}
    },
    {
      "fullUrl": "urn:uuid:med-antithromb-2b",
      "resource": {
        "resourceType": "MedicationRequest",
        "id": "ANTITHROMB-M2B",
        "status": "completed",
        "intent": "order",
        "medicationCodeableConcept": {
          "coding": [{"system": "http://www.whocc.no/atc", "code": "B01AE06", "display": "Dabigatran etexilate"}],
          "text": "普栓達 Dabigatran 110mg"
        },
        "subject": {"reference": "Patient/ANTITHROMB-CROSS-P2"},
        "encounter": {"reference": "Encounter/ANTITHROMB-E2B"},
        "authoredOn": "2025-10-11T11:00:00+08:00",
        "dosageInstruction": [{
          "timing": {"repeat": {"boundsPeriod": {"start": "2025-10-11", "end": "2025-11-07"}, "frequency": 2, "period": 1, "periodUnit": "d"}},
          "doseAndRate": [{"doseQuantity": {"value": 1, "unit": "capsule"}}]
        }],
        "dispenseRequest": {
          "validityPeriod": {"start": "2025-10-11", "end": "2025-11-07"},
          "quantity": {"value": 56, "unit": "capsule"},
          "expectedSupplyDuration": {"value": 28, "unit": "days", "system": "http://unitsofmeasure.org", "code": "d"}
        }
      },
      "request": {"method": "PUT", "url": "MedicationRequest/ANTITHROMB-M2B"}
    },
    {
      "fullUrl": "urn:uuid:enc-antithromb-3a",
      "resource": {
        "resourceType": "Encounter",
        "id": "ANTITHROMB-E3A",
        "status": "finished",
        "class": {"system": "http://terminology.hl7.org/CodeSystem/v3-ActCode", "code": "AMB"},
        "subject": {"reference": "Patient/ANTITHROMB-CROSS-P3"},
        "serviceProvider": {"reference": "Organization/HOSPITAL-C"},
        "period": {"start": "2025-10-06T15:00:00+08:00", "end": "2025-10-06T15:30:00+08:00"}
      },
      "request": {"method": "PUT", "url": "Encounter/ANTITHROMB-E3A"}
    },
    {
      "fullUrl": "urn:uuid:med-antithromb-3a",
      "resource": {
        "resourceType": "MedicationRequest",
        "id": "ANTITHROMB-M3A",
        "status": "completed",
        "intent": "order",
        "medicationCodeableConcept": {
          "coding": [{"system": "http://www.whocc.no/atc", "code": "B01AF01", "display": "Rivaroxaban"}],
          "text": "拜瑞妥 Rivaroxaban 15mg"
        },
        "subject": {"reference": "Patient/ANTITHROMB-CROSS-P3"},
        "encounter": {"reference": "Encounter/ANTITHROMB-E3A"},
        "authoredOn": "2025-10-06T15:00:00+08:00",
        "dosageInstruction": [{
          "timing": {"repeat": {"boundsPeriod": {"start": "2025-10-06", "end": "2025-11-02"}, "frequency": 1, "period": 1, "periodUnit": "d"}},
          "doseAndRate": [{"doseQuantity": {"value": 1, "unit": "tablet"}}]
        }],
        "dispenseRequest": {
          "validityPeriod": {"start": "2025-10-06", "end": "2025-11-02"},
          "quantity": {"value": 28, "unit": "tablet"},
          "expectedSupplyDuration": {"value": 28, "unit": "days", "system": "http://unitsofmeasure.org", "code": "d"}
        }
      },
      "request": {"method": "PUT", "url": "MedicationRequest/ANTITHROMB-M3A"}
    },
    {
      "fullUrl": "urn:uuid:enc-antithromb-3b",
      "resource": {
        "resourceType": "Encounter",
        "id": "ANTITHROMB-E3B",
        "status": "finished",
        "class": {"system": "http://terminology.hl7.org/CodeSystem/v3-ActCode", "code": "AMB"},
        "subject": {"reference": "Patient/ANTITHROMB-CROSS-P3"},
        "serviceProvider": {"reference": "Organization/HOSPITAL-D"},
        "period": {"start": "2025-10-13T16:00:00+08:00", "end": "2025-10-13T16:30:00+08:00"}
      },
      "request": {"method": "PUT", "url": "Encounter/ANTITHROMB-E3B"}
    },
    {
      "fullUrl": "urn:uuid:med-antithromb-3b",
      "resource": {
        "resourceType": "MedicationRequest",
        "id": "ANTITHROMB-M3B",
        "status": "completed",
        "intent": "order",
        "medicationCodeableConcept": {
          "coding": [{"system": "http://www.whocc.no/atc", "code": "B01AC24", "display": "Ticagrelor"}],
          "text": "倍林達 Ticagrelor 90mg"
        },
        "subject": {"reference": "Patient/ANTITHROMB-CROSS-P3"},
        "encounter": {"reference": "Encounter/ANTITHROMB-E3B"},
        "authoredOn": "2025-10-13T16:00:00+08:00",
        "dosageInstruction": [{
          "timing": {"repeat": {"boundsPeriod": {"start": "2025-10-13", "end": "2025-11-09"}, "frequency": 2, "period": 1, "periodUnit": "d"}},
          "doseAndRate": [{"doseQuantity": {"value": 1, "unit": "tablet"}}]
        }],
        "dispenseRequest": {
          "validityPeriod": {"start": "2025-10-13", "end": "2025-11-09"},
          "quantity": {"value": 56, "unit": "tablet"},
          "expectedSupplyDuration": {"value": 28, "unit": "days", "system": "http://unitsofmeasure.org", "code": "d"}
        }
      },
      "request": {"method": "PUT", "url": "MedicationRequest/ANTITHROMB-M3B"}
    }
  ]
}
