{
  "resourceType": "Bundle",
  "type": "transaction",
  "entry": [
    {
      "fullUrl": "urn:uuid:org-hospital-e",
      "resource": {
        "resourceType": "Organization",
        "id": "org-hospital-e",
        "identifier": [
          {
            "system": "http://www.mohw.gov.tw/hospital",
            "value": "HOSP-E-005"
          }
        ],
        "name": "戊醫院",
        "type": [
          {
            "coding": [
              {
                "system": "http://terminology.hl7.org/CodeSystem/organization-type",
                "code": "prov",
                "display": "Healthcare Provider"
              }
            ]
          }
        ]
      },
      "request": {
        "method": "PUT",
        "url": "Organization/org-hospital-e"
      }
    },
    {
      "fullUrl": "urn:uuid:org-hospital-f",
      "resource": {
        "resourceType": "Organization",
        "id": "org-hospital-f",
        "identifier": [
          {
            "system": "http://www.mohw.gov.tw/hospital",
            "value": "HOSP-F-006"
          }
        ],
        "name": "己醫院",
        "type": [
          {
            "coding": [
              {
                "system": "http://terminology.hl7.org/CodeSystem/organization-type",
                "code": "prov",
                "display": "Healthcare Provider"
              }
            ]
          }
        ]
      },
      "request": {
        "method": "PUT",
        "url": "Organization/org-hospital-f"
      }
    },
    {
      "fullUrl": "urn:uuid:patient-antidiabetic-overlap-001",
      "resource": {
        "resourceType": "Patient",
        "id": "patient-antidiabetic-overlap-001",
        "identifier": [
          {
            "system": "http://www.mohw.gov.tw/patient",
            "value": "ANTIDIABETIC-OVERLAP-001"
          }
        ],
        "name": [
          {
            "family": "吳",
            "given": ["明德"]
          }
        ],
        "gender": "male",
        "birthDate": "1963-07-15"
      },
      "request": {
        "method": "PUT",
        "url": "Patient/patient-antidiabetic-overlap-001"
      }
    },
    {
      "fullUrl": "urn:uuid:encounter-antidiabetic-overlap-001-e",
      "resource": {
        "resourceType": "Encounter",
        "id": "encounter-antidiabetic-overlap-001-e",
        "status": "finished",
        "class": {
          "system": "http://terminology.hl7.org/CodeSystem/v3-ActCode",
          "code": "AMB",
          "display": "ambulatory"
        },
        "subject": {
          "reference": "Patient/patient-antidiabetic-overlap-001"
        },
        "serviceProvider": {
          "reference": "Organization/org-hospital-e"
        },
        "period": {
          "start": "2025-10-03T09:00:00Z",
          "end": "2025-10-03T09:30:00Z"
        }
      },
      "request": {
        "method": "PUT",
        "url": "Encounter/encounter-antidiabetic-overlap-001-e"
      }
    },
    {
      "fullUrl": "urn:uuid:med-antidiabetic-overlap-001-e",
      "resource": {
        "resourceType": "MedicationRequest",
        "id": "med-antidiabetic-overlap-001-e",
        "status": "completed",
        "intent": "order",
        "medicationCodeableConcept": {
          "coding": [
            {
              "system": "http://www.whocc.no/atc",
              "code": "A10BA02",
              "display": "Metformin (降血糖藥)"
            }
          ]
        },
        "subject": {
          "reference": "Patient/patient-antidiabetic-overlap-001"
        },
        "encounter": {
          "reference": "Encounter/encounter-antidiabetic-overlap-001-e"
        },
        "authoredOn": "2025-10-03T09:15:00Z",
        "dosageInstruction": [
          {
            "timing": {
              "repeat": {
                "boundsPeriod": {
                  "start": "2025-10-03",
                  "end": "2025-11-01"
                }
              }
            }
          }
        ],
        "dispenseRequest": {
          "validityPeriod": {
            "start": "2025-10-03",
            "end": "2025-11-01"
          },
          "quantity": {
            "value": 30,
            "unit": "tablets"
          }
        }
      },
      "request": {
        "method": "PUT",
        "url": "MedicationRequest/med-antidiabetic-overlap-001-e"
      }
    },
    {
      "fullUrl": "urn:uuid:encounter-antidiabetic-overlap-001-f",
      "resource": {
        "resourceType": "Encounter",
        "id": "encounter-antidiabetic-overlap-001-f",
        "status": "finished",
        "class": {
          "system": "http://terminology.hl7.org/CodeSystem/v3-ActCode",
          "code": "AMB",
          "display": "ambulatory"
        },
        "subject": {
          "reference": "Patient/patient-antidiabetic-overlap-001"
        },
        "serviceProvider": {
          "reference": "Organization/org-hospital-f"
        },
        "period": {
          "start": "2025-10-20T14:00:00Z",
          "end": "2025-10-20T14:30:00Z"
        }
      },
      "request": {
        "method": "PUT",
        "url": "Encounter/encounter-antidiabetic-overlap-001-f"
      }
    },
    {
      "fullUrl": "urn:uuid:med-antidiabetic-overlap-001-f",
      "resource": {
        "resourceType": "MedicationRequest",
        "id": "med-antidiabetic-overlap-001-f",
        "status": "completed",
        "intent": "order",
        "medicationCodeableConcept": {
          "coding": [
            {
              "system": "http://www.whocc.no/atc",
              "code": "A10BH01",
              "display": "Sitagliptin (降血糖藥)"
            }
          ]
        },
        "subject": {
          "reference": "Patient/patient-antidiabetic-overlap-001"
        },
        "encounter": {
          "reference": "Encounter/encounter-antidiabetic-overlap-001-f"
        },
        "authoredOn": "2025-10-20T14:15:00Z",
        "dosageInstruction": [
          {
            "timing": {
              "repeat": {
                "boundsPeriod": {
                  "start": "2025-10-20",
                  "end": "2025-11-19"
                }
              }
            }
          }
        ],
        "dispenseRequest": {
          "validityPeriod": {
            "start": "2025-10-20",
            "end": "2025-11-19"
          },
          "quantity": {
            "value": 30,
            "unit": "tablets"
          }
        }
      },
      "request": {
        "method": "PUT",
        "url": "MedicationRequest/med-antidiabetic-overlap-001-f"
      }
    },
    {
      "fullUrl": "urn:uuid:patient-antidiabetic-overlap-002",
      "resource": {
        "resourceType": "Patient",
        "id": "patient-antidiabetic-overlap-002",
        "identifier": [
          {
            "system": "http://www.mohw.gov.tw/patient",
            "value": "ANTIDIABETIC-OVERLAP-002"
          }
        ],
        "name": [
          {
            "family": "鄭",
            "given": ["美玲"]
          }
        ],
        "gender": "female",
        "birthDate": "1959-11-28"
      },
      "request": {
        "method": "PUT",
        "url": "Patient/patient-antidiabetic-overlap-002"
      }
    },
    {
      "fullUrl": "urn:uuid:encounter-antidiabetic-overlap-002-e",
      "resource": {
        "resourceType": "Encounter",
        "id": "encounter-antidiabetic-overlap-002-e",
        "status": "finished",
        "class": {
          "system": "http://terminology.hl7.org/CodeSystem/v3-ActCode",
          "code": "AMB",
          "display": "ambulatory"
        },
        "subject": {
          "reference": "Patient/patient-antidiabetic-overlap-002"
        },
        "serviceProvider": {
          "reference": "Organization/org-hospital-e"
        },
        "period": {
          "start": "2025-10-07T10:00:00Z",
          "end": "2025-10-07T10:30:00Z"
        }
      },
      "request": {
        "method": "PUT",
        "url": "Encounter/encounter-antidiabetic-overlap-002-e"
      }
    },
    {
      "fullUrl": "urn:uuid:med-antidiabetic-overlap-002-e",
      "resource": {
        "resourceType": "MedicationRequest",
        "id": "med-antidiabetic-overlap-002-e",
        "status": "completed",
        "intent": "order",
        "medicationCodeableConcept": {
          "coding": [
            {
              "system": "http://www.whocc.no/atc",
              "code": "A10BB01",
              "display": "Glibenclamide (降血糖藥)"
            }
          ]
        },
        "subject": {
          "reference": "Patient/patient-antidiabetic-overlap-002"
        },
        "encounter": {
          "reference": "Encounter/encounter-antidiabetic-overlap-002-e"
        },
        "authoredOn": "2025-10-07T10:15:00Z",
        "dosageInstruction": [
          {
            "timing": {
              "repeat": {
                "boundsPeriod": {
                  "start": "2025-10-07",
                  "end": "2025-11-06"
                }
              }
            }
          }
        ],
        "dispenseRequest": {
          "validityPeriod": {
            "start": "2025-10-07",
            "end": "2025-11-06"
          },
          "quantity": {
            "value": 30,
            "unit": "tablets"
          }
        }
      },
      "request": {
        "method": "PUT",
        "url": "MedicationRequest/med-antidiabetic-overlap-002-e"
      }
    },
    {
      "fullUrl": "urn:uuid:encounter-antidiabetic-overlap-002-f",
      "resource": {
        "resourceType": "Encounter",
        "id": "encounter-antidiabetic-overlap-002-f",
        "status": "finished",
        "class": {
          "system": "http://terminology.hl7.org/CodeSystem/v3-ActCode",
          "code": "AMB",
          "display": "ambulatory"
        },
        "subject": {
          "reference": "Patient/patient-antidiabetic-overlap-002"
        },
        "serviceProvider": {
          "reference": "Organization/org-hospital-f"
        },
        "period": {
          "start": "2025-10-25T11:00:00Z",
          "end": "2025-10-25T11:30:00Z"
        }
      },
      "request": {
        "method": "PUT",
        "url": "Encounter/encounter-antidiabetic-overlap-002-f"
      }
    },
    {
      "fullUrl": "urn:uuid:med-antidiabetic-overlap-002-f",
      "resource": {
        "resourceType": "MedicationRequest",
        "id": "med-antidiabetic-overlap-002-f",
        "status": "completed",
        "intent": "order",
        "medicationCodeableConcept": {
          "coding": [
            {
              "system": "http://www.whocc.no/atc",
              "code": "A10BG02",
              "display": "Rosiglitazone (降血糖藥)"
            }
          ]
        },
        "subject": {
          "reference": "Patient/patient-antidiabetic-overlap-002"
        },
        "encounter": {
          "reference": "Encounter/encounter-antidiabetic-overlap-002-f"
        },
        "authoredOn": "2025-10-25T11:15:00Z",
        "dosageInstruction": [
          {
            "timing": {
              "repeat": {
                "boundsPeriod": {
                  "start": "2025-10-25",
                  "end": "2025-11-24"
                }
              }
            }
          }
        ],
        "dispenseRequest": {
          "validityPeriod": {
            "start": "2025-10-25",
            "end": "2025-11-24"
          },
          "quantity": {
            "value": 30,
            "unit": "tablets"
          }
        }
      },
      "request": {
        "method": "PUT",
        "url": "MedicationRequest/med-antidiabetic-overlap-002-f"
      }
    },
    {
      "fullUrl": "urn:uuid:patient-antidiabetic-overlap-003",
      "resource": {
        "resourceType": "Patient",
        "id": "patient-antidiabetic-overlap-003",
        "identifier": [
          {
            "system": "http://www.mohw.gov.tw/patient",
            "value": "ANTIDIABETIC-OVERLAP-003"
          }
        ],
        "name": [
          {
            "family": "周",
            "given": ["文華"]
          }
        ],
        "gender": "male",
        "birthDate": "1970-04-10"
      },
      "request": {
        "method": "PUT",
        "url": "Patient/patient-antidiabetic-overlap-003"
      }
    },
    {
      "fullUrl": "urn:uuid:encounter-antidiabetic-overlap-003-e",
      "resource": {
        "resourceType": "Encounter",
        "id": "encounter-antidiabetic-overlap-003-e",
        "status": "finished",
        "class": {
          "system": "http://terminology.hl7.org/CodeSystem/v3-ActCode",
          "code": "AMB",
          "display": "ambulatory"
        },
        "subject": {
          "reference": "Patient/patient-antidiabetic-overlap-003"
        },
        "serviceProvider": {
          "reference": "Organization/org-hospital-e"
        },
        "period": {
          "start": "2025-09-30T15:00:00Z",
          "end": "2025-09-30T15:30:00Z"
        }
      },
      "request": {
        "method": "PUT",
        "url": "Encounter/encounter-antidiabetic-overlap-003-e"
      }
    },
    {
      "fullUrl": "urn:uuid:med-antidiabetic-overlap-003-e",
      "resource": {
        "resourceType": "MedicationRequest",
        "id": "med-antidiabetic-overlap-003-e",
        "status": "completed",
        "intent": "order",
        "medicationCodeableConcept": {
          "coding": [
            {
              "system": "http://www.whocc.no/atc",
              "code": "A10BJ01",
              "display": "Exenatide (降血糖藥)"
            }
          ]
        },
        "subject": {
          "reference": "Patient/patient-antidiabetic-overlap-003"
        },
        "encounter": {
          "reference": "Encounter/encounter-antidiabetic-overlap-003-e"
        },
        "authoredOn": "2025-09-30T15:15:00Z",
        "dosageInstruction": [
          {
            "timing": {
              "repeat": {
                "boundsPeriod": {
                  "start": "2025-09-30",
                  "end": "2025-10-29"
                }
              }
            }
          }
        ],
        "dispenseRequest": {
          "validityPeriod": {
            "start": "2025-09-30",
            "end": "2025-10-29"
          },
          "quantity": {
            "value": 30,
            "unit": "doses"
          }
        }
      },
      "request": {
        "method": "PUT",
        "url": "MedicationRequest/med-antidiabetic-overlap-003-e"
      }
    },
    {
      "fullUrl": "urn:uuid:encounter-antidiabetic-overlap-003-f",
      "resource": {
        "resourceType": "Encounter",
        "id": "encounter-antidiabetic-overlap-003-f",
        "status": "finished",
        "class": {
          "system": "http://terminology.hl7.org/CodeSystem/v3-ActCode",
          "code": "AMB",
          "display": "ambulatory"
        },
        "subject": {
          "reference": "Patient/patient-antidiabetic-overlap-003"
        },
        "serviceProvider": {
          "reference": "Organization/org-hospital-f"
        },
        "period": {
          "start": "2025-10-15T13:00:00Z",
          "end": "2025-10-15T13:30:00Z"
        }
      },
      "request": {
        "method": "PUT",
        "url": "Encounter/encounter-antidiabetic-overlap-003-f"
      }
    },
    {
      "fullUrl": "urn:uuid:med-antidiabetic-overlap-003-f",
      "resource": {
        "resourceType": "MedicationRequest",
        "id": "med-antidiabetic-overlap-003-f",
        "status": "completed",
        "intent": "order",
        "medicationCodeableConcept": {
          "coding": [
            {
              "system": "http://www.whocc.no/atc",
              "code": "A10BK01",
              "display": "Empagliflozin (降血糖藥)"
            }
          ]
        },
        "subject": {
          "reference": "Patient/patient-antidiabetic-overlap-003"
        },
        "encounter": {
          "reference": "Encounter/encounter-antidiabetic-overlap-003-f"
        },
        "authoredOn": "2025-10-15T13:15:00Z",
        "dosageInstruction": [
          {
            "timing": {
              "repeat": {
                "boundsPeriod": {
                  "start": "2025-10-15",
                  "end": "2025-11-14"
                }
              }
            }
          }
        ],
        "dispenseRequest": {
          "validityPeriod": {
            "start": "2025-10-15",
            "end": "2025-11-14"
          },
          "quantity": {
            "value": 30,
            "unit": "tablets"
          }
        }
      },
      "request": {
        "method": "PUT",
        "url": "MedicationRequest/med-antidiabetic-overlap-003-f"
      }
    }
  ]
}
