{
  "resourceType": "Bundle",
  "type": "transaction",
  "entry": [
    {
      "fullUrl": "urn:uuid:org-1",
      "resource": {
        "resourceType": "Organization",
        "id": "HOSPITAL-A",
        "name": "台北榮民總醫院",
        "identifier": [
          {
            "system": "https://www.nhi.gov.tw",
            "value": "0501010519"
          }
        ]
      },
      "request": {
        "method": "PUT",
        "url": "Organization/HOSPITAL-A"
      }
    },
    {
      "fullUrl": "urn:uuid:org-2",
      "resource": {
        "resourceType": "Organization",
        "id": "HOSPITAL-B",
        "name": "三軍總醫院",
        "identifier": [
          {
            "system": "https://www.nhi.gov.tw",
            "value": "0501050018"
          }
        ]
      },
      "request": {
        "method": "PUT",
        "url": "Organization/HOSPITAL-B"
      }
    },
    {
      "fullUrl": "urn:uuid:patient-1",
      "resource": {
        "resourceType": "Patient",
        "id": "CROSSHOSPITAL-P1-2025Q4",
        "gender": "female",
        "birthDate": "1965-03-15",
        "name": [
          {
            "text": "王雅文",
            "family": "Wang",
            "given": ["Yawen"]
          }
        ]
      },
      "request": {
        "method": "PUT",
        "url": "Patient/CROSSHOSPITAL-P1-2025Q4"
      }
    },
    {
      "fullUrl": "urn:uuid:patient-2",
      "resource": {
        "resourceType": "Patient",
        "id": "CROSSHOSPITAL-P2-2025Q4",
        "gender": "male",
        "birthDate": "1960-07-22",
        "name": [
          {
            "text": "李建宏",
            "family": "Li",
            "given": ["Jianhong"]
          }
        ]
      },
      "request": {
        "method": "PUT",
        "url": "Patient/CROSSHOSPITAL-P2-2025Q4"
      }
    },
    {
      "fullUrl": "urn:uuid:patient-3",
      "resource": {
        "resourceType": "Patient",
        "id": "CROSSHOSPITAL-P3-2025Q4",
        "gender": "female",
        "birthDate": "1958-11-08",
        "name": [
          {
            "text": "陳美惠",
            "family": "Chen",
            "given": ["Meihui"]
          }
        ]
      },
      "request": {
        "method": "PUT",
        "url": "Patient/CROSSHOSPITAL-P3-2025Q4"
      }
    },
    {
      "fullUrl": "urn:uuid:encounter-1a",
      "resource": {
        "resourceType": "Encounter",
        "id": "CROSSHOSPITAL-E1A-2025Q4",
        "status": "finished",
        "class": {
          "system": "http://terminology.hl7.org/CodeSystem/v3-ActCode",
          "code": "AMB",
          "display": "ambulatory"
        },
        "subject": {
          "reference": "Patient/CROSSHOSPITAL-P1-2025Q4"
        },
        "serviceProvider": {
          "reference": "Organization/HOSPITAL-A"
        },
        "period": {
          "start": "2025-10-01T09:00:00+08:00",
          "end": "2025-10-01T09:30:00+08:00"
        }
      },
      "request": {
        "method": "PUT",
        "url": "Encounter/CROSSHOSPITAL-E1A-2025Q4"
      }
    },
    {
      "fullUrl": "urn:uuid:medication-1a",
      "resource": {
        "resourceType": "MedicationRequest",
        "id": "CROSSHOSPITAL-M1A-2025Q4",
        "status": "completed",
        "intent": "order",
        "medicationCodeableConcept": {
          "coding": [
            {
              "system": "http://www.whocc.no/atc",
              "code": "C09AA02",
              "display": "Enalapril"
            }
          ],
          "text": "益壓穩 Enalapril 5mg"
        },
        "subject": {
          "reference": "Patient/CROSSHOSPITAL-P1-2025Q4"
        },
        "encounter": {
          "reference": "Encounter/CROSSHOSPITAL-E1A-2025Q4"
        },
        "authoredOn": "2025-10-01T09:00:00+08:00",
        "dosageInstruction": [
          {
            "timing": {
              "repeat": {
                "boundsPeriod": {
                  "start": "2025-10-01",
                  "end": "2025-10-28"
                },
                "frequency": 1,
                "period": 1,
                "periodUnit": "d"
              }
            },
            "doseAndRate": [
              {
                "doseQuantity": {
                  "value": 1,
                  "unit": "tablet"
                }
              }
            ]
          }
        ],
        "dispenseRequest": {
          "validityPeriod": {
            "start": "2025-10-01",
            "end": "2025-10-28"
          },
          "quantity": {
            "value": 28,
            "unit": "tablet"
          },
          "expectedSupplyDuration": {
            "value": 28,
            "unit": "days",
            "system": "http://unitsofmeasure.org",
            "code": "d"
          }
        }
      },
      "request": {
        "method": "PUT",
        "url": "MedicationRequest/CROSSHOSPITAL-M1A-2025Q4"
      }
    },
    {
      "fullUrl": "urn:uuid:encounter-1b",
      "resource": {
        "resourceType": "Encounter",
        "id": "CROSSHOSPITAL-E1B-2025Q4",
        "status": "finished",
        "class": {
          "system": "http://terminology.hl7.org/CodeSystem/v3-ActCode",
          "code": "AMB",
          "display": "ambulatory"
        },
        "subject": {
          "reference": "Patient/CROSSHOSPITAL-P1-2025Q4"
        },
        "serviceProvider": {
          "reference": "Organization/HOSPITAL-B"
        },
        "period": {
          "start": "2025-10-15T14:00:00+08:00",
          "end": "2025-10-15T14:30:00+08:00"
        }
      },
      "request": {
        "method": "PUT",
        "url": "Encounter/CROSSHOSPITAL-E1B-2025Q4"
      }
    },
    {
      "fullUrl": "urn:uuid:medication-1b",
      "resource": {
        "resourceType": "MedicationRequest",
        "id": "CROSSHOSPITAL-M1B-2025Q4",
        "status": "completed",
        "intent": "order",
        "medicationCodeableConcept": {
          "coding": [
            {
              "system": "http://www.whocc.no/atc",
              "code": "C07AB03",
              "display": "Atenolol"
            }
          ],
          "text": "天諾敏 Atenolol 50mg"
        },
        "subject": {
          "reference": "Patient/CROSSHOSPITAL-P1-2025Q4"
        },
        "encounter": {
          "reference": "Encounter/CROSSHOSPITAL-E1B-2025Q4"
        },
        "authoredOn": "2025-10-15T14:00:00+08:00",
        "dosageInstruction": [
          {
            "timing": {
              "repeat": {
                "boundsPeriod": {
                  "start": "2025-10-15",
                  "end": "2025-11-11"
                },
                "frequency": 1,
                "period": 1,
                "periodUnit": "d"
              }
            },
            "doseAndRate": [
              {
                "doseQuantity": {
                  "value": 1,
                  "unit": "tablet"
                }
              }
            ]
          }
        ],
        "dispenseRequest": {
          "validityPeriod": {
            "start": "2025-10-15",
            "end": "2025-11-11"
          },
          "quantity": {
            "value": 28,
            "unit": "tablet"
          },
          "expectedSupplyDuration": {
            "value": 28,
            "unit": "days",
            "system": "http://unitsofmeasure.org",
            "code": "d"
          }
        }
      },
      "request": {
        "method": "PUT",
        "url": "MedicationRequest/CROSSHOSPITAL-M1B-2025Q4"
      }
    },
    {
      "fullUrl": "urn:uuid:encounter-2a",
      "resource": {
        "resourceType": "Encounter",
        "id": "CROSSHOSPITAL-E2A-2025Q4",
        "status": "finished",
        "class": {
          "system": "http://terminology.hl7.org/CodeSystem/v3-ActCode",
          "code": "AMB",
          "display": "ambulatory"
        },
        "subject": {
          "reference": "Patient/CROSSHOSPITAL-P2-2025Q4"
        },
        "serviceProvider": {
          "reference": "Organization/HOSPITAL-A"
        },
        "period": {
          "start": "2025-10-05T10:00:00+08:00",
          "end": "2025-10-05T10:30:00+08:00"
        }
      },
      "request": {
        "method": "PUT",
        "url": "Encounter/CROSSHOSPITAL-E2A-2025Q4"
      }
    },
    {
      "fullUrl": "urn:uuid:medication-2a",
      "resource": {
        "resourceType": "MedicationRequest",
        "id": "CROSSHOSPITAL-M2A-2025Q4",
        "status": "completed",
        "intent": "order",
        "medicationCodeableConcept": {
          "coding": [
            {
              "system": "http://www.whocc.no/atc",
              "code": "C08CA01",
              "display": "Amlodipine"
            }
          ],
          "text": "脈優 Amlodipine 5mg"
        },
        "subject": {
          "reference": "Patient/CROSSHOSPITAL-P2-2025Q4"
        },
        "encounter": {
          "reference": "Encounter/CROSSHOSPITAL-E2A-2025Q4"
        },
        "authoredOn": "2025-10-05T10:00:00+08:00",
        "dosageInstruction": [
          {
            "timing": {
              "repeat": {
                "boundsPeriod": {
                  "start": "2025-10-05",
                  "end": "2025-11-01"
                },
                "frequency": 1,
                "period": 1,
                "periodUnit": "d"
              }
            },
            "doseAndRate": [
              {
                "doseQuantity": {
                  "value": 1,
                  "unit": "tablet"
                }
              }
            ]
          }
        ],
        "dispenseRequest": {
          "validityPeriod": {
            "start": "2025-10-05",
            "end": "2025-11-01"
          },
          "quantity": {
            "value": 28,
            "unit": "tablet"
          },
          "expectedSupplyDuration": {
            "value": 28,
            "unit": "days",
            "system": "http://unitsofmeasure.org",
            "code": "d"
          }
        }
      },
      "request": {
        "method": "PUT",
        "url": "MedicationRequest/CROSSHOSPITAL-M2A-2025Q4"
      }
    },
    {
      "fullUrl": "urn:uuid:encounter-2b",
      "resource": {
        "resourceType": "Encounter",
        "id": "CROSSHOSPITAL-E2B-2025Q4",
        "status": "finished",
        "class": {
          "system": "http://terminology.hl7.org/CodeSystem/v3-ActCode",
          "code": "AMB",
          "display": "ambulatory"
        },
        "subject": {
          "reference": "Patient/CROSSHOSPITAL-P2-2025Q4"
        },
        "serviceProvider": {
          "reference": "Organization/HOSPITAL-B"
        },
        "period": {
          "start": "2025-10-20T11:00:00+08:00",
          "end": "2025-10-20T11:30:00+08:00"
        }
      },
      "request": {
        "method": "PUT",
        "url": "Encounter/CROSSHOSPITAL-E2B-2025Q4"
      }
    },
    {
      "fullUrl": "urn:uuid:medication-2b",
      "resource": {
        "resourceType": "MedicationRequest",
        "id": "CROSSHOSPITAL-M2B-2025Q4",
        "status": "completed",
        "intent": "order",
        "medicationCodeableConcept": {
          "coding": [
            {
              "system": "http://www.whocc.no/atc",
              "code": "C09AA02",
              "display": "Enalapril"
            }
          ],
          "text": "益壓穩 Enalapril 10mg"
        },
        "subject": {
          "reference": "Patient/CROSSHOSPITAL-P2-2025Q4"
        },
        "encounter": {
          "reference": "Encounter/CROSSHOSPITAL-E2B-2025Q4"
        },
        "authoredOn": "2025-10-20T11:00:00+08:00",
        "dosageInstruction": [
          {
            "timing": {
              "repeat": {
                "boundsPeriod": {
                  "start": "2025-10-20",
                  "end": "2025-11-16"
                },
                "frequency": 1,
                "period": 1,
                "periodUnit": "d"
              }
            },
            "doseAndRate": [
              {
                "doseQuantity": {
                  "value": 1,
                  "unit": "tablet"
                }
              }
            ]
          }
        ],
        "dispenseRequest": {
          "validityPeriod": {
            "start": "2025-10-20",
            "end": "2025-11-16"
          },
          "quantity": {
            "value": 28,
            "unit": "tablet"
          },
          "expectedSupplyDuration": {
            "value": 28,
            "unit": "days",
            "system": "http://unitsofmeasure.org",
            "code": "d"
          }
        }
      },
      "request": {
        "method": "PUT",
        "url": "MedicationRequest/CROSSHOSPITAL-M2B-2025Q4"
      }
    },
    {
      "fullUrl": "urn:uuid:encounter-3a",
      "resource": {
        "resourceType": "Encounter",
        "id": "CROSSHOSPITAL-E3A-2025Q4",
        "status": "finished",
        "class": {
          "system": "http://terminology.hl7.org/CodeSystem/v3-ActCode",
          "code": "AMB",
          "display": "ambulatory"
        },
        "subject": {
          "reference": "Patient/CROSSHOSPITAL-P3-2025Q4"
        },
        "serviceProvider": {
          "reference": "Organization/HOSPITAL-A"
        },
        "period": {
          "start": "2025-10-10T15:00:00+08:00",
          "end": "2025-10-10T15:30:00+08:00"
        }
      },
      "request": {
        "method": "PUT",
        "url": "Encounter/CROSSHOSPITAL-E3A-2025Q4"
      }
    },
    {
      "fullUrl": "urn:uuid:medication-3a",
      "resource": {
        "resourceType": "MedicationRequest",
        "id": "CROSSHOSPITAL-M3A-2025Q4",
        "status": "completed",
        "intent": "order",
        "medicationCodeableConcept": {
          "coding": [
            {
              "system": "http://www.whocc.no/atc",
              "code": "C09CA01",
              "display": "Losartan"
            }
          ],
          "text": "可悅您 Losartan 50mg"
        },
        "subject": {
          "reference": "Patient/CROSSHOSPITAL-P3-2025Q4"
        },
        "encounter": {
          "reference": "Encounter/CROSSHOSPITAL-E3A-2025Q4"
        },
        "authoredOn": "2025-10-10T15:00:00+08:00",
        "dosageInstruction": [
          {
            "timing": {
              "repeat": {
                "boundsPeriod": {
                  "start": "2025-10-10",
                  "end": "2025-11-06"
                },
                "frequency": 1,
                "period": 1,
                "periodUnit": "d"
              }
            },
            "doseAndRate": [
              {
                "doseQuantity": {
                  "value": 1,
                  "unit": "tablet"
                }
              }
            ]
          }
        ],
        "dispenseRequest": {
          "validityPeriod": {
            "start": "2025-10-10",
            "end": "2025-11-06"
          },
          "quantity": {
            "value": 28,
            "unit": "tablet"
          },
          "expectedSupplyDuration": {
            "value": 28,
            "unit": "days",
            "system": "http://unitsofmeasure.org",
            "code": "d"
          }
        }
      },
      "request": {
        "method": "PUT",
        "url": "MedicationRequest/CROSSHOSPITAL-M3A-2025Q4"
      }
    },
    {
      "fullUrl": "urn:uuid:encounter-3b",
      "resource": {
        "resourceType": "Encounter",
        "id": "CROSSHOSPITAL-E3B-2025Q4",
        "status": "finished",
        "class": {
          "system": "http://terminology.hl7.org/CodeSystem/v3-ActCode",
          "code": "AMB",
          "display": "ambulatory"
        },
        "subject": {
          "reference": "Patient/CROSSHOSPITAL-P3-2025Q4"
        },
        "serviceProvider": {
          "reference": "Organization/HOSPITAL-B"
        },
        "period": {
          "start": "2025-10-25T16:00:00+08:00",
          "end": "2025-10-25T16:30:00+08:00"
        }
      },
      "request": {
        "method": "PUT",
        "url": "Encounter/CROSSHOSPITAL-E3B-2025Q4"
      }
    },
    {
      "fullUrl": "urn:uuid:medication-3b",
      "resource": {
        "resourceType": "MedicationRequest",
        "id": "CROSSHOSPITAL-M3B-2025Q4",
        "status": "completed",
        "intent": "order",
        "medicationCodeableConcept": {
          "coding": [
            {
              "system": "http://www.whocc.no/atc",
              "code": "C08CA01",
              "display": "Amlodipine"
            }
          ],
          "text": "脈優 Amlodipine 5mg"
        },
        "subject": {
          "reference": "Patient/CROSSHOSPITAL-P3-2025Q4"
        },
        "encounter": {
          "reference": "Encounter/CROSSHOSPITAL-E3B-2025Q4"
        },
        "authoredOn": "2025-10-25T16:00:00+08:00",
        "dosageInstruction": [
          {
            "timing": {
              "repeat": {
                "boundsPeriod": {
                  "start": "2025-10-25",
                  "end": "2025-11-21"
                },
                "frequency": 1,
                "period": 1,
                "periodUnit": "d"
              }
            },
            "doseAndRate": [
              {
                "doseQuantity": {
                  "value": 1,
                  "unit": "tablet"
                }
              }
            ]
          }
        ],
        "dispenseRequest": {
          "validityPeriod": {
            "start": "2025-10-25",
            "end": "2025-11-21"
          },
          "quantity": {
            "value": 28,
            "unit": "tablet"
          },
          "expectedSupplyDuration": {
            "value": 28,
            "unit": "days",
            "system": "http://unitsofmeasure.org",
            "code": "d"
          }
        }
      },
      "request": {
        "method": "PUT",
        "url": "MedicationRequest/CROSSHOSPITAL-M3B-2025Q4"
      }
    }
  ]
}
