{
  "resourceType": "Bundle",
  "type": "batch",
  "entry": [
    {
      "resource": {
        "resourceType": "Patient",
        "id": "patient-002",
        "identifier": [
          {
            "system": "http://hospital.example.org/patient-id",
            "value": "P002"
          }
        ],
        "name": [
          {
            "family": "林",
            "given": ["小華"]
          }
        ],
        "gender": "female",
        "birthDate": "1985-07-22"
      },
      "request": {
        "method": "POST",
        "url": "Patient"
      }
    },
    {
      "resource": {
        "resourceType": "Encounter",
        "id": "encounter-002-1",
        "status": "finished",
        "class": {
          "system": "http://terminology.hl7.org/CodeSystem/v3-ActCode",
          "code": "AMB",
          "display": "ambulatory"
        },
        "subject": {
          "reference": "Patient/patient-002"
        },
        "serviceProvider": {
          "reference": "Organization/hospital-A"
        },
        "period": {
          "start": "2024-11-05T14:00:00+08:00",
          "end": "2024-11-05T14:20:00+08:00"
        }
      },
      "request": {
        "method": "POST",
        "url": "Encounter"
      }
    },
    {
      "resource": {
        "resourceType": "Condition",
        "id": "condition-002-uti",
        "clinicalStatus": {
          "coding": [
            {
              "system": "http://terminology.hl7.org/CodeSystem/condition-clinical",
              "code": "active"
            }
          ]
        },
        "code": {
          "coding": [
            {
              "system": "http://hl7.org/fhir/sid/icd-10-cm",
              "code": "N39.0",
              "display": "Urinary tract infection"
            }
          ],
          "text": "泌尿道感染"
        },
        "subject": {
          "reference": "Patient/patient-002"
        },
        "onsetDateTime": "2024-11-04"
      },
      "request": {
        "method": "POST",
        "url": "Condition"
      }
    },
    {
      "resource": {
        "resourceType": "MedicationRequest",
        "id": "med-002-1",
        "status": "active",
        "intent": "order",
        "medicationCodeableConcept": {
          "coding": [
            {
              "system": "http://www.whocc.no/atc",
              "code": "J01CA04",
              "display": "Amoxicillin"
            }
          ],
          "text": "Amoxicillin 500mg"
        },
        "subject": {
          "reference": "Patient/patient-002"
        },
        "encounter": {
          "reference": "Encounter/encounter-002-1"
        },
        "authoredOn": "2024-11-05T14:10:00+08:00",
        "dispenseRequest": {
          "validityPeriod": {
            "start": "2024-11-05",
            "end": "2024-11-12"
          },
          "quantity": {
            "value": 21,
            "unit": "capsules"
          }
        }
      },
      "request": {
        "method": "POST",
        "url": "MedicationRequest"
      }
    },
    {
      "resource": {
        "resourceType": "MedicationRequest",
        "id": "med-002-2",
        "status": "active",
        "intent": "order",
        "medicationCodeableConcept": {
          "coding": [
            {
              "system": "http://www.whocc.no/atc",
              "code": "N02BE01",
              "display": "Paracetamol"
            }
          ],
          "text": "Paracetamol 500mg"
        },
        "subject": {
          "reference": "Patient/patient-002"
        },
        "encounter": {
          "reference": "Encounter/encounter-002-1"
        },
        "authoredOn": "2024-11-05T14:12:00+08:00",
        "dispenseRequest": {
          "validityPeriod": {
            "start": "2024-11-05",
            "end": "2024-11-12"
          },
          "quantity": {
            "value": 14,
            "unit": "tablets"
          }
        }
      },
      "request": {
        "method": "POST",
        "url": "MedicationRequest"
      }
    }
  ]
}
