{
  "resourceType": "Bundle",
  "type": "batch",
  "entry": [
    {
      "resource": {
        "resourceType": "Patient",
        "id": "patient-004",
        "identifier": [
          {
            "system": "http://hospital.example.org/patient-id",
            "value": "P004"
          }
        ],
        "name": [
          {
            "family": "張",
            "given": ["美玲"]
          }
        ],
        "gender": "female",
        "birthDate": "1955-04-30"
      },
      "request": {
        "method": "POST",
        "url": "Patient"
      }
    },
    {
      "resource": {
        "resourceType": "Organization",
        "id": "hospital-B",
        "name": "新北市立醫院"
      },
      "request": {
        "method": "POST",
        "url": "Organization"
      }
    },
    {
      "resource": {
        "resourceType": "Encounter",
        "id": "encounter-004-1",
        "status": "finished",
        "class": {
          "system": "http://terminology.hl7.org/CodeSystem/v3-ActCode",
          "code": "AMB",
          "display": "ambulatory"
        },
        "subject": {
          "reference": "Patient/patient-004"
        },
        "serviceProvider": {
          "reference": "Organization/hospital-A"
        },
        "period": {
          "start": "2024-11-12T10:00:00+08:00",
          "end": "2024-11-12T10:25:00+08:00"
        }
      },
      "request": {
        "method": "POST",
        "url": "Encounter"
      }
    },
    {
      "resource": {
        "resourceType": "Encounter",
        "id": "encounter-004-2",
        "status": "finished",
        "class": {
          "system": "http://terminology.hl7.org/CodeSystem/v3-ActCode",
          "code": "AMB",
          "display": "ambulatory"
        },
        "subject": {
          "reference": "Patient/patient-004"
        },
        "serviceProvider": {
          "reference": "Organization/hospital-B"
        },
        "period": {
          "start": "2024-11-15T15:00:00+08:00",
          "end": "2024-11-15T15:30:00+08:00"
        }
      },
      "request": {
        "method": "POST",
        "url": "Encounter"
      }
    },
    {
      "resource": {
        "resourceType": "Condition",
        "id": "condition-004-htn",
        "clinicalStatus": {
          "coding": [
            {
              "system": "http://terminology.hl7.org/CodeSystem/condition-clinical",
              "code": "active"
            }
          ]
        },
        "code": {
          "coding": [
            {
              "system": "http://hl7.org/fhir/sid/icd-10-cm",
              "code": "I10",
              "display": "Essential (primary) hypertension"
            }
          ],
          "text": "高血壓"
        },
        "subject": {
          "reference": "Patient/patient-004"
        },
        "onsetDateTime": "2015-08-20"
      },
      "request": {
        "method": "POST",
        "url": "Condition"
      }
    },
    {
      "resource": {
        "resourceType": "Condition",
        "id": "condition-004-lipid",
        "clinicalStatus": {
          "coding": [
            {
              "system": "http://terminology.hl7.org/CodeSystem/condition-clinical",
              "code": "active"
            }
          ]
        },
        "code": {
          "coding": [
            {
              "system": "http://hl7.org/fhir/sid/icd-10-cm",
              "code": "E78.5",
              "display": "Hyperlipidemia"
            }
          ],
          "text": "高血脂"
        },
        "subject": {
          "reference": "Patient/patient-004"
        },
        "onsetDateTime": "2017-06-10"
      },
      "request": {
        "method": "POST",
        "url": "Condition"
      }
    },
    {
      "resource": {
        "resourceType": "MedicationRequest",
        "id": "med-004-1",
        "status": "active",
        "intent": "order",
        "medicationCodeableConcept": {
          "coding": [
            {
              "system": "http://www.whocc.no/atc",
              "code": "C09AA02",
              "display": "Enalapril"
            }
          ],
          "text": "Enalapril 10mg (台北市立醫院)"
        },
        "subject": {
          "reference": "Patient/patient-004"
        },
        "encounter": {
          "reference": "Encounter/encounter-004-1"
        },
        "authoredOn": "2024-11-12T10:15:00+08:00",
        "dispenseRequest": {
          "validityPeriod": {
            "start": "2024-11-12",
            "end": "2024-12-11"
          },
          "quantity": {
            "value": 30,
            "unit": "tablets"
          }
        }
      },
      "request": {
        "method": "POST",
        "url": "MedicationRequest"
      }
    },
    {
      "resource": {
        "resourceType": "MedicationRequest",
        "id": "med-004-2",
        "status": "active",
        "intent": "order",
        "medicationCodeableConcept": {
          "coding": [
            {
              "system": "http://www.whocc.no/atc",
              "code": "C10AA01",
              "display": "Simvastatin"
            }
          ],
          "text": "Simvastatin 20mg (台北市立醫院)"
        },
        "subject": {
          "reference": "Patient/patient-004"
        },
        "encounter": {
          "reference": "Encounter/encounter-004-1"
        },
        "authoredOn": "2024-11-12T10:18:00+08:00",
        "dispenseRequest": {
          "validityPeriod": {
            "start": "2024-11-12",
            "end": "2024-12-11"
          },
          "quantity": {
            "value": 30,
            "unit": "tablets"
          }
        }
      },
      "request": {
        "method": "POST",
        "url": "MedicationRequest"
      }
    },
    {
      "resource": {
        "resourceType": "MedicationRequest",
        "id": "med-004-3",
        "status": "active",
        "intent": "order",
        "medicationCodeableConcept": {
          "coding": [
            {
              "system": "http://www.whocc.no/atc",
              "code": "C07AB02",
              "display": "Metoprolol"
            }
          ],
          "text": "Metoprolol 50mg (新北市立醫院-跨院重複)"
        },
        "subject": {
          "reference": "Patient/patient-004"
        },
        "encounter": {
          "reference": "Encounter/encounter-004-2"
        },
        "authoredOn": "2024-11-15T15:20:00+08:00",
        "dispenseRequest": {
          "validityPeriod": {
            "start": "2024-11-15",
            "end": "2024-12-14"
          },
          "quantity": {
            "value": 30,
            "unit": "tablets"
          }
        }
      },
      "request": {
        "method": "POST",
        "url": "MedicationRequest"
      }
    },
    {
      "resource": {
        "resourceType": "MedicationRequest",
        "id": "med-004-4",
        "status": "active",
        "intent": "order",
        "medicationCodeableConcept": {
          "coding": [
            {
              "system": "http://www.whocc.no/atc",
              "code": "C10AA05",
              "display": "Atorvastatin"
            }
          ],
          "text": "Atorvastatin 10mg (新北市立醫院-跨院重複)"
        },
        "subject": {
          "reference": "Patient/patient-004"
        },
        "encounter": {
          "reference": "Encounter/encounter-004-2"
        },
        "authoredOn": "2024-11-15T15:25:00+08:00",
        "dispenseRequest": {
          "validityPeriod": {
            "start": "2024-11-15",
            "end": "2024-12-14"
          },
          "quantity": {
            "value": 30,
            "unit": "tablets"
          }
        }
      },
      "request": {
        "method": "POST",
        "url": "MedicationRequest"
      }
    }
  ]
}
