{
  "resourceType": "Bundle",
  "type": "batch",
  "entry": [
    {
      "resource": {
        "resourceType": "Patient",
        "id": "patient-001",
        "identifier": [
          {
            "system": "http://hospital.example.org/patient-id",
            "value": "P001"
          }
        ],
        "name": [
          {
            "family": "陳",
            "given": ["大明"]
          }
        ],
        "gender": "male",
        "birthDate": "1965-03-15"
      },
      "request": {
        "method": "POST",
        "url": "Patient"
      }
    },
    {
      "resource": {
        "resourceType": "Organization",
        "id": "hospital-A",
        "name": "台北市立醫院"
      },
      "request": {
        "method": "POST",
        "url": "Organization"
      }
    },
    {
      "resource": {
        "resourceType": "Encounter",
        "id": "encounter-001-1",
        "status": "finished",
        "class": {
          "system": "http://terminology.hl7.org/CodeSystem/v3-ActCode",
          "code": "AMB",
          "display": "ambulatory"
        },
        "subject": {
          "reference": "Patient/patient-001"
        },
        "serviceProvider": {
          "reference": "Organization/hospital-A"
        },
        "period": {
          "start": "2024-11-01T10:00:00+08:00",
          "end": "2024-11-01T10:30:00+08:00"
        }
      },
      "request": {
        "method": "POST",
        "url": "Encounter"
      }
    },
    {
      "resource": {
        "resourceType": "Condition",
        "id": "condition-001-htn",
        "clinicalStatus": {
          "coding": [
            {
              "system": "http://terminology.hl7.org/CodeSystem/condition-clinical",
              "code": "active"
            }
          ]
        },
        "code": {
          "coding": [
            {
              "system": "http://hl7.org/fhir/sid/icd-10-cm",
              "code": "I10",
              "display": "Essential (primary) hypertension"
            }
          ],
          "text": "高血壓"
        },
        "subject": {
          "reference": "Patient/patient-001"
        },
        "onsetDateTime": "2020-05-10"
      },
      "request": {
        "method": "POST",
        "url": "Condition"
      }
    },
    {
      "resource": {
        "resourceType": "MedicationRequest",
        "id": "med-001-1",
        "status": "active",
        "intent": "order",
        "medicationCodeableConcept": {
          "coding": [
            {
              "system": "http://www.whocc.no/atc",
              "code": "C09AA01",
              "display": "Captopril"
            }
          ],
          "text": "Captopril 25mg"
        },
        "subject": {
          "reference": "Patient/patient-001"
        },
        "encounter": {
          "reference": "Encounter/encounter-001-1"
        },
        "authoredOn": "2024-11-01T10:15:00+08:00",
        "dispenseRequest": {
          "validityPeriod": {
            "start": "2024-11-01",
            "end": "2024-11-30"
          },
          "quantity": {
            "value": 30,
            "unit": "tablets"
          }
        }
      },
      "request": {
        "method": "POST",
        "url": "MedicationRequest"
      }
    },
    {
      "resource": {
        "resourceType": "MedicationRequest",
        "id": "med-001-2",
        "status": "active",
        "intent": "order",
        "medicationCodeableConcept": {
          "coding": [
            {
              "system": "http://www.whocc.no/atc",
              "code": "C08CA01",
              "display": "Amlodipine"
            }
          ],
          "text": "Amlodipine 5mg"
        },
        "subject": {
          "reference": "Patient/patient-001"
        },
        "encounter": {
          "reference": "Encounter/encounter-001-1"
        },
        "authoredOn": "2024-11-01T10:20:00+08:00",
        "dispenseRequest": {
          "validityPeriod": {
            "start": "2024-11-01",
            "end": "2024-11-30"
          },
          "quantity": {
            "value": 30,
            "unit": "tablets"
          }
        }
      },
      "request": {
        "method": "POST",
        "url": "MedicationRequest"
      }
    },
    {
      "resource": {
        "resourceType": "Observation",
        "id": "obs-001-bp",
        "status": "final",
        "category": [
          {
            "coding": [
              {
                "system": "http://terminology.hl7.org/CodeSystem/observation-category",
                "code": "vital-signs"
              }
            ]
          }
        ],
        "code": {
          "coding": [
            {
              "system": "http://loinc.org",
              "code": "85354-9",
              "display": "Blood pressure panel"
            }
          ]
        },
        "subject": {
          "reference": "Patient/patient-001"
        },
        "encounter": {
          "reference": "Encounter/encounter-001-1"
        },
        "effectiveDateTime": "2024-11-01T10:05:00+08:00",
        "component": [
          {
            "code": {
              "coding": [
                {
                  "system": "http://loinc.org",
                  "code": "8480-6",
                  "display": "Systolic blood pressure"
                }
              ]
            },
            "valueQuantity": {
              "value": 152,
              "unit": "mmHg",
              "system": "http://unitsofmeasure.org",
              "code": "mm[Hg]"
            }
          },
          {
            "code": {
              "coding": [
                {
                  "system": "http://loinc.org",
                  "code": "8462-4",
                  "display": "Diastolic blood pressure"
                }
              ]
            },
            "valueQuantity": {
              "value": 95,
              "unit": "mmHg",
              "system": "http://unitsofmeasure.org",
              "code": "mm[Hg]"
            }
          }
        ]
      },
      "request": {
        "method": "POST",
        "url": "Observation"
      }
    }
  ]
}
