{
  "resourceType": "Bundle",
  "type": "batch",
  "entry": [
    {
      "resource": {
        "resourceType": "Patient",
        "id": "patient-003",
        "identifier": [
          {
            "system": "http://hospital.example.org/patient-id",
            "value": "P003"
          }
        ],
        "name": [
          {
            "family": "黃",
            "given": ["志明"]
          }
        ],
        "gender": "male",
        "birthDate": "1972-11-08"
      },
      "request": {
        "method": "POST",
        "url": "Patient"
      }
    },
    {
      "resource": {
        "resourceType": "Encounter",
        "id": "encounter-003-1",
        "status": "finished",
        "class": {
          "system": "http://terminology.hl7.org/CodeSystem/v3-ActCode",
          "code": "AMB",
          "display": "ambulatory"
        },
        "subject": {
          "reference": "Patient/patient-003"
        },
        "serviceProvider": {
          "reference": "Organization/hospital-A"
        },
        "period": {
          "start": "2024-11-10T09:00:00+08:00",
          "end": "2024-11-10T09:30:00+08:00"
        }
      },
      "request": {
        "method": "POST",
        "url": "Encounter"
      }
    },
    {
      "resource": {
        "resourceType": "Condition",
        "id": "condition-003-dm",
        "clinicalStatus": {
          "coding": [
            {
              "system": "http://terminology.hl7.org/CodeSystem/condition-clinical",
              "code": "active"
            }
          ]
        },
        "code": {
          "coding": [
            {
              "system": "http://hl7.org/fhir/sid/icd-10-cm",
              "code": "E11.9",
              "display": "Type 2 diabetes mellitus"
            }
          ],
          "text": "第二型糖尿病"
        },
        "subject": {
          "reference": "Patient/patient-003"
        },
        "onsetDateTime": "2018-03-15"
      },
      "request": {
        "method": "POST",
        "url": "Condition"
      }
    },
    {
      "resource": {
        "resourceType": "MedicationRequest",
        "id": "med-003-1",
        "status": "active",
        "intent": "order",
        "medicationCodeableConcept": {
          "coding": [
            {
              "system": "http://www.whocc.no/atc",
              "code": "A10BA02",
              "display": "Metformin"
            }
          ],
          "text": "Metformin 500mg"
        },
        "subject": {
          "reference": "Patient/patient-003"
        },
        "encounter": {
          "reference": "Encounter/encounter-003-1"
        },
        "authoredOn": "2024-11-10T09:15:00+08:00",
        "dispenseRequest": {
          "validityPeriod": {
            "start": "2024-11-10",
            "end": "2024-12-09"
          },
          "quantity": {
            "value": 60,
            "unit": "tablets"
          }
        }
      },
      "request": {
        "method": "POST",
        "url": "MedicationRequest"
      }
    },
    {
      "resource": {
        "resourceType": "MedicationRequest",
        "id": "med-003-2",
        "status": "active",
        "intent": "order",
        "medicationCodeableConcept": {
          "coding": [
            {
              "system": "http://www.whocc.no/atc",
              "code": "A10BH01",
              "display": "Sitagliptin"
            }
          ],
          "text": "Sitagliptin 100mg"
        },
        "subject": {
          "reference": "Patient/patient-003"
        },
        "encounter": {
          "reference": "Encounter/encounter-003-1"
        },
        "authoredOn": "2024-11-10T09:18:00+08:00",
        "dispenseRequest": {
          "validityPeriod": {
            "start": "2024-11-10",
            "end": "2024-12-09"
          },
          "quantity": {
            "value": 30,
            "unit": "tablets"
          }
        }
      },
      "request": {
        "method": "POST",
        "url": "MedicationRequest"
      }
    },
    {
      "resource": {
        "resourceType": "Observation",
        "id": "obs-003-hba1c",
        "status": "final",
        "category": [
          {
            "coding": [
              {
                "system": "http://terminology.hl7.org/CodeSystem/observation-category",
                "code": "laboratory"
              }
            ]
          }
        ],
        "code": {
          "coding": [
            {
              "system": "http://loinc.org",
              "code": "4548-4",
              "display": "Hemoglobin A1c"
            }
          ]
        },
        "subject": {
          "reference": "Patient/patient-003"
        },
        "encounter": {
          "reference": "Encounter/encounter-003-1"
        },
        "effectiveDateTime": "2024-11-10T09:05:00+08:00",
        "valueQuantity": {
          "value": 9.5,
          "unit": "%",
          "system": "http://unitsofmeasure.org",
          "code": "%"
        }
      },
      "request": {
        "method": "POST",
        "url": "Observation"
      }
    }
  ]
}
