{
    "resourceType":  "Bundle",
    "type":  "transaction",
    "entry":  [
                  {
                      "resource":  {
                                       "resourceType":  "Patient",
                                       "id":  "eswl-patient-001",
                                       "identifier":  [
                                                          {
                                                              "system":  "https://www.tph.mohw.gov.tw",
                                                              "value":  "ESWL001"
                                                          }
                                                      ],
                                       "gender":  "male",
                                       "birthDate":  "1965-03-15"
                                   }
                  },
                  {
                      "resource":  {
                                       "resourceType":  "Encounter",
                                       "id":  "eswl-encounter-001",
                                       "status":  "finished",
                                       "class":  {
                                                     "system":  "http://terminology.hl7.org/CodeSystem/v3-ActCode",
                                                     "code":  "IMP",
                                                     "display":  "inpatient encounter"
                                                 },
                                       "subject":  {
                                                       "reference":  "Patient/eswl-patient-001"
                                                   },
                                       "period":  {
                                                      "start":  "2024-05-10T08:00:00+08:00",
                                                      "end":  "2024-05-12T14:00:00+08:00"
                                                  }
                                   }
                  },
                  {
                      "resource":  {
                                       "resourceType":  "Condition",
                                       "id":  "eswl-condition-001",
                                       "code":  {
                                                    "coding":  [
                                                                   {
                                                                       "system":  "http://hl7.org/fhir/sid/icd-10-cm",
                                                                       "code":  "N20.0",
                                                                       "display":  "Calculus of kidney"
                                                                   }
                                                               ]
                                                },
                                       "subject":  {
                                                       "reference":  "Patient/eswl-patient-001"
                                                   },
                                       "encounter":  {
                                                         "reference":  "Encounter/eswl-encounter-001"
                                                     },
                                       "onsetDateTime":  "2024-05-05",
                                       "clinicalStatus":  {
                                                              "coding":  [
                                                                             {
                                                                                 "system":  "http://terminology.hl7.org/CodeSystem/condition-clinical",
                                                                                 "code":  "resolved"
                                                                             }
                                                                         ]
                                                          },
                                       "verificationStatus":  {
                                                                  "coding":  [
                                                                                 {
                                                                                     "system":  "http://terminology.hl7.org/CodeSystem/condition-ver-status",
                                                                                     "code":  "confirmed"
                                                                                 }
                                                                             ]
                                                              }
                                   }
                  },
                  {
                      "resource":  {
                                       "resourceType":  "Procedure",
                                       "id":  "eswl-procedure-001",
                                       "status":  "completed",
                                       "code":  {
                                                    "coding":  [
                                                                   {
                                                                       "system":  "http://snomed.info/sct",
                                                                       "code":  "80146002",
                                                                       "display":  "Extracorporeal shockwave lithotripsy"
                                                                   },
                                                                   {
                                                                       "system":  "http://www.ama-assn.org/go/cpt",
                                                                       "code":  "50590",
                                                                       "display":  "Lithotripsy, extracorporeal shock wave"
                                                                   },
                                                                   {
                                                                       "system":  "http://hl7.org/fhir/sid/icd-10-pcs",
                                                                       "code":  "0TF00ZZ",
                                                                       "display":  "Extracorporeal lithotripsy, kidney"
                                                                   }
                                                               ]
                                                },
                                       "subject":  {
                                                       "reference":  "Patient/eswl-patient-001"
                                                   },
                                       "encounter":  {
                                                         "reference":  "Encounter/eswl-encounter-001"
                                                     },
                                       "performedDateTime":  "2024-05-11T10:30:00+08:00"
                                   }
                  },
                  {
                      "resource":  {
                                       "resourceType":  "Patient",
                                       "id":  "eswl-patient-002",
                                       "identifier":  [
                                                          {
                                                              "system":  "https://www.tph.mohw.gov.tw",
                                                              "value":  "ESWL002"
                                                          }
                                                      ],
                                       "gender":  "female",
                                       "birthDate":  "1972-08-22"
                                   }
                  },
                  {
                      "resource":  {
                                       "resourceType":  "Encounter",
                                       "id":  "eswl-encounter-002",
                                       "status":  "finished",
                                       "class":  {
                                                     "system":  "http://terminology.hl7.org/CodeSystem/v3-ActCode",
                                                     "code":  "IMP",
                                                     "display":  "inpatient encounter"
                                                 },
                                       "subject":  {
                                                       "reference":  "Patient/eswl-patient-002"
                                                   },
                                       "period":  {
                                                      "start":  "2024-06-15T09:00:00+08:00",
                                                      "end":  "2024-06-17T16:00:00+08:00"
                                                  }
                                   }
                  },
                  {
                      "resource":  {
                                       "resourceType":  "Condition",
                                       "id":  "eswl-condition-002",
                                       "code":  {
                                                    "coding":  [
                                                                   {
                                                                       "system":  "http://hl7.org/fhir/sid/icd-10-cm",
                                                                       "code":  "N20.1",
                                                                       "display":  "Calculus of ureter"
                                                                   }
                                                               ]
                                                },
                                       "subject":  {
                                                       "reference":  "Patient/eswl-patient-002"
                                                   },
                                       "encounter":  {
                                                         "reference":  "Encounter/eswl-encounter-002"
                                                     },
                                       "onsetDateTime":  "2024-06-10",
                                       "clinicalStatus":  {
                                                              "coding":  [
                                                                             {
                                                                                 "system":  "http://terminology.hl7.org/CodeSystem/condition-clinical",
                                                                                 "code":  "resolved"
                                                                             }
                                                                         ]
                                                          },
                                       "verificationStatus":  {
                                                                  "coding":  [
                                                                                 {
                                                                                     "system":  "http://terminology.hl7.org/CodeSystem/condition-ver-status",
                                                                                     "code":  "confirmed"
                                                                                 }
                                                                             ]
                                                              }
                                   }
                  },
                  {
                      "resource":  {
                                       "resourceType":  "Procedure",
                                       "id":  "eswl-procedure-002",
                                       "status":  "completed",
                                       "code":  {
                                                    "coding":  [
                                                                   {
                                                                       "system":  "http://snomed.info/sct",
                                                                       "code":  "80146002",
                                                                       "display":  "Extracorporeal shockwave lithotripsy"
                                                                   },
                                                                   {
                                                                       "system":  "http://www.ama-assn.org/go/cpt",
                                                                       "code":  "50590",
                                                                       "display":  "Lithotripsy, extracorporeal shock wave"
                                                                   },
                                                                   {
                                                                       "system":  "http://hl7.org/fhir/sid/icd-10-pcs",
                                                                       "code":  "0TF00ZZ",
                                                                       "display":  "Extracorporeal lithotripsy, kidney"
                                                                   }
                                                               ]
                                                },
                                       "subject":  {
                                                       "reference":  "Patient/eswl-patient-002"
                                                   },
                                       "encounter":  {
                                                         "reference":  "Encounter/eswl-encounter-002"
                                                     },
                                       "performedDateTime":  "2024-06-16T11:00:00+08:00"
                                   }
                  },
                  {
                      "resource":  {
                                       "resourceType":  "Patient",
                                       "id":  "eswl-patient-003",
                                       "identifier":  [
                                                          {
                                                              "system":  "https://www.tph.mohw.gov.tw",
                                                              "value":  "ESWL003"
                                                          }
                                                      ],
                                       "gender":  "male",
                                       "birthDate":  "1958-11-30"
                                   }
                  },
                  {
                      "resource":  {
                                       "resourceType":  "Encounter",
                                       "id":  "eswl-encounter-003",
                                       "status":  "finished",
                                       "class":  {
                                                     "system":  "http://terminology.hl7.org/CodeSystem/v3-ActCode",
                                                     "code":  "IMP",
                                                     "display":  "inpatient encounter"
                                                 },
                                       "subject":  {
                                                       "reference":  "Patient/eswl-patient-003"
                                                   },
                                       "period":  {
                                                      "start":  "2024-07-20T08:30:00+08:00",
                                                      "end":  "2024-07-22T15:00:00+08:00"
                                                  }
                                   }
                  },
                  {
                      "resource":  {
                                       "resourceType":  "Condition",
                                       "id":  "eswl-condition-003",
                                       "code":  {
                                                    "coding":  [
                                                                   {
                                                                       "system":  "http://hl7.org/fhir/sid/icd-10-cm",
                                                                       "code":  "N20.2",
                                                                       "display":  "Calculus of kidney with calculus of ureter"
                                                                   }
                                                               ]
                                                },
                                       "subject":  {
                                                       "reference":  "Patient/eswl-patient-003"
                                                   },
                                       "encounter":  {
                                                         "reference":  "Encounter/eswl-encounter-003"
                                                     },
                                       "onsetDateTime":  "2024-07-15",
                                       "clinicalStatus":  {
                                                              "coding":  [
                                                                             {
                                                                                 "system":  "http://terminology.hl7.org/CodeSystem/condition-clinical",
                                                                                 "code":  "resolved"
                                                                             }
                                                                         ]
                                                          },
                                       "verificationStatus":  {
                                                                  "coding":  [
                                                                                 {
                                                                                     "system":  "http://terminology.hl7.org/CodeSystem/condition-ver-status",
                                                                                     "code":  "confirmed"
                                                                                 }
                                                                             ]
                                                              }
                                   }
                  },
                  {
                      "resource":  {
                                       "resourceType":  "Procedure",
                                       "id":  "eswl-procedure-003",
                                       "status":  "completed",
                                       "code":  {
                                                    "coding":  [
                                                                   {
                                                                       "system":  "http://snomed.info/sct",
                                                                       "code":  "80146002",
                                                                       "display":  "Extracorporeal shockwave lithotripsy"
                                                                   },
                                                                   {
                                                                       "system":  "http://www.ama-assn.org/go/cpt",
                                                                       "code":  "50590",
                                                                       "display":  "Lithotripsy, extracorporeal shock wave"
                                                                   },
                                                                   {
                                                                       "system":  "http://hl7.org/fhir/sid/icd-10-pcs",
                                                                       "code":  "0TF00ZZ",
                                                                       "display":  "Extracorporeal lithotripsy, kidney"
                                                                   }
                                                               ]
                                                },
                                       "subject":  {
                                                       "reference":  "Patient/eswl-patient-003"
                                                   },
                                       "encounter":  {
                                                         "reference":  "Encounter/eswl-encounter-003"
                                                     },
                                       "performedDateTime":  "2024-07-21T09:45:00+08:00"
                                   }
                  },
                  {
                      "resource":  {
                                       "resourceType":  "Patient",
                                       "id":  "eswl-patient-004",
                                       "identifier":  [
                                                          {
                                                              "system":  "https://www.tph.mohw.gov.tw",
                                                              "value":  "ESWL004"
                                                          }
                                                      ],
                                       "gender":  "female",
                                       "birthDate":  "1980-04-18"
                                   }
                  },
                  {
                      "resource":  {
                                       "resourceType":  "Encounter",
                                       "id":  "eswl-encounter-004",
                                       "status":  "finished",
                                       "class":  {
                                                     "system":  "http://terminology.hl7.org/CodeSystem/v3-ActCode",
                                                     "code":  "IMP",
                                                     "display":  "inpatient encounter"
                                                 },
                                       "subject":  {
                                                       "reference":  "Patient/eswl-patient-004"
                                                   },
                                       "period":  {
                                                      "start":  "2024-08-05T10:00:00+08:00",
                                                      "end":  "2024-08-07T14:30:00+08:00"
                                                  }
                                   }
                  },
                  {
                      "resource":  {
                                       "resourceType":  "Condition",
                                       "id":  "eswl-condition-004",
                                       "code":  {
                                                    "coding":  [
                                                                   {
                                                                       "system":  "http://hl7.org/fhir/sid/icd-10-cm",
                                                                       "code":  "N20.0",
                                                                       "display":  "Calculus of kidney"
                                                                   }
                                                               ]
                                                },
                                       "subject":  {
                                                       "reference":  "Patient/eswl-patient-004"
                                                   },
                                       "encounter":  {
                                                         "reference":  "Encounter/eswl-encounter-004"
                                                     },
                                       "onsetDateTime":  "2024-08-01",
                                       "clinicalStatus":  {
                                                              "coding":  [
                                                                             {
                                                                                 "system":  "http://terminology.hl7.org/CodeSystem/condition-clinical",
                                                                                 "code":  "resolved"
                                                                             }
                                                                         ]
                                                          },
                                       "verificationStatus":  {
                                                                  "coding":  [
                                                                                 {
                                                                                     "system":  "http://terminology.hl7.org/CodeSystem/condition-ver-status",
                                                                                     "code":  "confirmed"
                                                                                 }
                                                                             ]
                                                              }
                                   }
                  },
                  {
                      "resource":  {
                                       "resourceType":  "Procedure",
                                       "id":  "eswl-procedure-004",
                                       "status":  "completed",
                                       "code":  {
                                                    "coding":  [
                                                                   {
                                                                       "system":  "http://snomed.info/sct",
                                                                       "code":  "80146002",
                                                                       "display":  "Extracorporeal shockwave lithotripsy"
                                                                   },
                                                                   {
                                                                       "system":  "http://www.ama-assn.org/go/cpt",
                                                                       "code":  "50590",
                                                                       "display":  "Lithotripsy, extracorporeal shock wave"
                                                                   },
                                                                   {
                                                                       "system":  "http://hl7.org/fhir/sid/icd-10-pcs",
                                                                       "code":  "0TF00ZZ",
                                                                       "display":  "Extracorporeal lithotripsy, kidney"
                                                                   }
                                                               ]
                                                },
                                       "subject":  {
                                                       "reference":  "Patient/eswl-patient-004"
                                                   },
                                       "encounter":  {
                                                         "reference":  "Encounter/eswl-encounter-004"
                                                     },
                                       "performedDateTime":  "2024-08-06T10:15:00+08:00"
                                   }
                  },
                  {
                      "resource":  {
                                       "resourceType":  "Patient",
                                       "id":  "eswl-patient-005",
                                       "identifier":  [
                                                          {
                                                              "system":  "https://www.tph.mohw.gov.tw",
                                                              "value":  "ESWL005"
                                                          }
                                                      ],
                                       "gender":  "male",
                                       "birthDate":  "1968-09-10"
                                   }
                  },
                  {
                      "resource":  {
                                       "resourceType":  "Encounter",
                                       "id":  "eswl-encounter-005",
                                       "status":  "finished",
                                       "class":  {
                                                     "system":  "http://terminology.hl7.org/CodeSystem/v3-ActCode",
                                                     "code":  "IMP",
                                                     "display":  "inpatient encounter"
                                                 },
                                       "subject":  {
                                                       "reference":  "Patient/eswl-patient-005"
                                                   },
                                       "period":  {
                                                      "start":  "2024-09-12T08:00:00+08:00",
                                                      "end":  "2024-09-14T13:00:00+08:00"
                                                  }
                                   }
                  },
                  {
                      "resource":  {
                                       "resourceType":  "Condition",
                                       "id":  "eswl-condition-005",
                                       "code":  {
                                                    "coding":  [
                                                                   {
                                                                       "system":  "http://hl7.org/fhir/sid/icd-10-cm",
                                                                       "code":  "N20.1",
                                                                       "display":  "Calculus of ureter"
                                                                   }
                                                               ]
                                                },
                                       "subject":  {
                                                       "reference":  "Patient/eswl-patient-005"
                                                   },
                                       "encounter":  {
                                                         "reference":  "Encounter/eswl-encounter-005"
                                                     },
                                       "onsetDateTime":  "2024-09-08",
                                       "clinicalStatus":  {
                                                              "coding":  [
                                                                             {
                                                                                 "system":  "http://terminology.hl7.org/CodeSystem/condition-clinical",
                                                                                 "code":  "resolved"
                                                                             }
                                                                         ]
                                                          },
                                       "verificationStatus":  {
                                                                  "coding":  [
                                                                                 {
                                                                                     "system":  "http://terminology.hl7.org/CodeSystem/condition-ver-status",
                                                                                     "code":  "confirmed"
                                                                                 }
                                                                             ]
                                                              }
                                   }
                  },
                  {
                      "resource":  {
                                       "resourceType":  "Procedure",
                                       "id":  "eswl-procedure-005",
                                       "status":  "completed",
                                       "code":  {
                                                    "coding":  [
                                                                   {
                                                                       "system":  "http://snomed.info/sct",
                                                                       "code":  "80146002",
                                                                       "display":  "Extracorporeal shockwave lithotripsy"
                                                                   },
                                                                   {
                                                                       "system":  "http://www.ama-assn.org/go/cpt",
                                                                       "code":  "50590",
                                                                       "display":  "Lithotripsy, extracorporeal shock wave"
                                                                   },
                                                                   {
                                                                       "system":  "http://hl7.org/fhir/sid/icd-10-pcs",
                                                                       "code":  "0TF00ZZ",
                                                                       "display":  "Extracorporeal lithotripsy, kidney"
                                                                   }
                                                               ]
                                                },
                                       "subject":  {
                                                       "reference":  "Patient/eswl-patient-005"
                                                   },
                                       "encounter":  {
                                                         "reference":  "Encounter/eswl-encounter-005"
                                                     },
                                       "performedDateTime":  "2024-09-13T11:30:00+08:00"
                                   }
                  }
              ]
}
