{
    "resourceType":  "Bundle",
    "type":  "transaction",
    "entry":  [
                  {
                      "resource":  {
                                       "resourceType":  "Patient",
                                       "id":  "tka-patient-001",
                                       "identifier":  [
                                                          {
                                                              "system":  "https://www.tph.mohw.gov.tw",
                                                              "value":  "TKA001"
                                                          }
                                                      ],
                                       "gender":  "female",
                                       "birthDate":  "1955-06-15"
                                   },
                      "request":  {
                                      "method":  "PUT",
                                      "url":  "Patient/tka-patient-001"
                                  }
                  },
                  {
                      "resource":  {
                                       "resourceType":  "Encounter",
                                       "id":  "tka-encounter-001",
                                       "status":  "finished",
                                       "class":  {
                                                     "system":  "http://terminology.hl7.org/CodeSystem/v3-ActCode",
                                                     "code":  "IMP",
                                                     "display":  "inpatient encounter"
                                                 },
                                       "subject":  {
                                                       "reference":  "Patient/tka-patient-001"
                                                   },
                                       "period":  {
                                                      "start":  "2024-08-01T08:00:00+08:00",
                                                      "end":  "2024-08-10T14:00:00+08:00"
                                                  }
                                   },
                      "request":  {
                                      "method":  "PUT",
                                      "url":  "Encounter/tka-encounter-001"
                                  }
                  },
                  {
                      "resource":  {
                                       "resourceType":  "Procedure",
                                       "id":  "tka-procedure-001",
                                       "status":  "completed",
                                       "code":  {
                                                    "coding":  [
                                                                   {
                                                                       "system":  "https://twcore.mohw.gov.tw/ig/twcore/CodeSystem/nhi-procedure",
                                                                       "code":  "64164B",
                                                                       "display":  "全人工膝關節置換術"
                                                                   },
                                                                   {
                                                                       "system":  "http://snomed.info/sct",
                                                                       "code":  "609588000",
                                                                       "display":  "Total knee replacement"
                                                                   },
                                                                   {
                                                                       "system":  "http://www.ama-assn.org/go/cpt",
                                                                       "code":  "27447",
                                                                       "display":  "Total knee arthroplasty"
                                                                   }
                                                               ]
                                                },
                                       "subject":  {
                                                       "reference":  "Patient/tka-patient-001"
                                                   },
                                       "encounter":  {
                                                         "reference":  "Encounter/tka-encounter-001"
                                                     },
                                       "performedDateTime":  "2024-08-02T10:00:00+08:00"
                                   },
                      "request":  {
                                      "method":  "PUT",
                                      "url":  "Procedure/tka-procedure-001"
                                  }
                  },
                  {
                      "resource":  {
                                       "resourceType":  "Encounter",
                                       "id":  "tka-infection-encounter-001",
                                       "status":  "finished",
                                       "class":  {
                                                     "system":  "http://terminology.hl7.org/CodeSystem/v3-ActCode",
                                                     "code":  "IMP",
                                                     "display":  "inpatient encounter"
                                                 },
                                       "subject":  {
                                                       "reference":  "Patient/tka-patient-001"
                                                   },
                                       "period":  {
                                                      "start":  "2024-09-25T08:00:00+08:00",
                                                      "end":  "2024-10-05T14:00:00+08:00"
                                                  }
                                   },
                      "request":  {
                                      "method":  "PUT",
                                      "url":  "Encounter/tka-infection-encounter-001"
                                  }
                  },
                  {
                      "resource":  {
                                       "resourceType":  "Procedure",
                                       "id":  "tka-infection-procedure-001",
                                       "status":  "completed",
                                       "code":  {
                                                    "coding":  [
                                                                   {
                                                                       "system":  "https://twcore.mohw.gov.tw/ig/twcore/CodeSystem/nhi-procedure",
                                                                       "code":  "64053B",
                                                                       "display":  "人工膝關節感染清創術"
                                                                   },
                                                                   {
                                                                       "system":  "http://snomed.info/sct",
                                                                       "code":  "77849006",
                                                                       "display":  "Debridement of knee"
                                                                   }
                                                               ]
                                                },
                                       "subject":  {
                                                       "reference":  "Patient/tka-patient-001"
                                                   },
                                       "encounter":  {
                                                         "reference":  "Encounter/tka-infection-encounter-001"
                                                     },
                                       "performedDateTime":  "2024-09-26T11:00:00+08:00"
                                   },
                      "request":  {
                                      "method":  "PUT",
                                      "url":  "Procedure/tka-infection-procedure-001"
                                  }
                  },
                  {
                      "resource":  {
                                       "resourceType":  "Condition",
                                       "id":  "tka-infection-condition-001",
                                       "code":  {
                                                    "coding":  [
                                                                   {
                                                                       "system":  "http://hl7.org/fhir/sid/icd-10-cm",
                                                                       "code":  "T84.54",
                                                                       "display":  "Infection and inflammatory reaction due to internal left knee prosthesis"
                                                                   }
                                                               ]
                                                },
                                       "subject":  {
                                                       "reference":  "Patient/tka-patient-001"
                                                   },
                                       "encounter":  {
                                                         "reference":  "Encounter/tka-infection-encounter-001"
                                                     },
                                       "onsetDateTime":  "2024-09-20",
                                       "clinicalStatus":  {
                                                              "coding":  [
                                                                             {
                                                                                 "system":  "http://terminology.hl7.org/CodeSystem/condition-clinical",
                                                                                 "code":  "resolved"
                                                                             }
                                                                         ]
                                                          },
                                       "verificationStatus":  {
                                                                  "coding":  [
                                                                                 {
                                                                                     "system":  "http://terminology.hl7.org/CodeSystem/condition-ver-status",
                                                                                     "code":  "confirmed"
                                                                                 }
                                                                             ]
                                                              }
                                   },
                      "request":  {
                                      "method":  "PUT",
                                      "url":  "Condition/tka-infection-condition-001"
                                  }
                  },
                  {
                      "resource":  {
                                       "resourceType":  "Patient",
                                       "id":  "tka-patient-002",
                                       "identifier":  [
                                                          {
                                                              "system":  "https://www.tph.mohw.gov.tw",
                                                              "value":  "TKA002"
                                                          }
                                                      ],
                                       "gender":  "male",
                                       "birthDate":  "1960-03-22"
                                   },
                      "request":  {
                                      "method":  "PUT",
                                      "url":  "Patient/tka-patient-002"
                                  }
                  },
                  {
                      "resource":  {
                                       "resourceType":  "Encounter",
                                       "id":  "tka-encounter-002",
                                       "status":  "finished",
                                       "class":  {
                                                     "system":  "http://terminology.hl7.org/CodeSystem/v3-ActCode",
                                                     "code":  "IMP",
                                                     "display":  "inpatient encounter"
                                                 },
                                       "subject":  {
                                                       "reference":  "Patient/tka-patient-002"
                                                   },
                                       "period":  {
                                                      "start":  "2024-08-15T09:00:00+08:00",
                                                      "end":  "2024-08-25T16:00:00+08:00"
                                                  }
                                   },
                      "request":  {
                                      "method":  "PUT",
                                      "url":  "Encounter/tka-encounter-002"
                                  }
                  },
                  {
                      "resource":  {
                                       "resourceType":  "Procedure",
                                       "id":  "tka-procedure-002",
                                       "status":  "completed",
                                       "code":  {
                                                    "coding":  [
                                                                   {
                                                                       "system":  "https://twcore.mohw.gov.tw/ig/twcore/CodeSystem/nhi-procedure",
                                                                       "code":  "97805K",
                                                                       "display":  "全人工膝關節置換術"
                                                                   },
                                                                   {
                                                                       "system":  "http://snomed.info/sct",
                                                                       "code":  "179344006",
                                                                       "display":  "Total arthroplasty of knee"
                                                                   },
                                                                   {
                                                                       "system":  "http://www.ama-assn.org/go/cpt",
                                                                       "code":  "27447",
                                                                       "display":  "Total knee arthroplasty"
                                                                   }
                                                               ]
                                                },
                                       "subject":  {
                                                       "reference":  "Patient/tka-patient-002"
                                                   },
                                       "encounter":  {
                                                         "reference":  "Encounter/tka-encounter-002"
                                                     },
                                       "performedDateTime":  "2024-08-16T11:30:00+08:00"
                                   },
                      "request":  {
                                      "method":  "PUT",
                                      "url":  "Procedure/tka-procedure-002"
                                  }
                  },
                  {
                      "resource":  {
                                       "resourceType":  "Encounter",
                                       "id":  "tka-infection-encounter-002",
                                       "status":  "finished",
                                       "class":  {
                                                     "system":  "http://terminology.hl7.org/CodeSystem/v3-ActCode",
                                                     "code":  "IMP",
                                                     "display":  "inpatient encounter"
                                                 },
                                       "subject":  {
                                                       "reference":  "Patient/tka-patient-002"
                                                   },
                                       "period":  {
                                                      "start":  "2024-10-10T08:00:00+08:00",
                                                      "end":  "2024-10-20T15:00:00+08:00"
                                                  }
                                   },
                      "request":  {
                                      "method":  "PUT",
                                      "url":  "Encounter/tka-infection-encounter-002"
                                  }
                  },
                  {
                      "resource":  {
                                       "resourceType":  "Procedure",
                                       "id":  "tka-infection-procedure-002",
                                       "status":  "completed",
                                       "code":  {
                                                    "coding":  [
                                                                   {
                                                                       "system":  "https://twcore.mohw.gov.tw/ig/twcore/CodeSystem/nhi-procedure",
                                                                       "code":  "64198B",
                                                                       "display":  "人工膝關節置換物移除術"
                                                                   },
                                                                   {
                                                                       "system":  "http://snomed.info/sct",
                                                                       "code":  "397956004",
                                                                       "display":  "Removal of knee prosthesis"
                                                                   }
                                                               ]
                                                },
                                       "subject":  {
                                                       "reference":  "Patient/tka-patient-002"
                                                   },
                                       "encounter":  {
                                                         "reference":  "Encounter/tka-infection-encounter-002"
                                                     },
                                       "performedDateTime":  "2024-10-11T10:00:00+08:00"
                                   },
                      "request":  {
                                      "method":  "PUT",
                                      "url":  "Procedure/tka-infection-procedure-002"
                                  }
                  },
                  {
                      "resource":  {
                                       "resourceType":  "Condition",
                                       "id":  "tka-infection-condition-002",
                                       "code":  {
                                                    "coding":  [
                                                                   {
                                                                       "system":  "http://hl7.org/fhir/sid/icd-10-cm",
                                                                       "code":  "T84.54",
                                                                       "display":  "Infection and inflammatory reaction due to internal knee prosthesis"
                                                                   }
                                                               ]
                                                },
                                       "subject":  {
                                                       "reference":  "Patient/tka-patient-002"
                                                   },
                                       "encounter":  {
                                                         "reference":  "Encounter/tka-infection-encounter-002"
                                                     },
                                       "onsetDateTime":  "2024-10-05",
                                       "clinicalStatus":  {
                                                              "coding":  [
                                                                             {
                                                                                 "system":  "http://terminology.hl7.org/CodeSystem/condition-clinical",
                                                                                 "code":  "resolved"
                                                                             }
                                                                         ]
                                                          },
                                       "verificationStatus":  {
                                                                  "coding":  [
                                                                                 {
                                                                                     "system":  "http://terminology.hl7.org/CodeSystem/condition-ver-status",
                                                                                     "code":  "confirmed"
                                                                                 }
                                                                             ]
                                                              }
                                   },
                      "request":  {
                                      "method":  "PUT",
                                      "url":  "Condition/tka-infection-condition-002"
                                  }
                  },
                  {
                      "resource":  {
                                       "resourceType":  "Patient",
                                       "id":  "tka-patient-003",
                                       "identifier":  [
                                                          {
                                                              "system":  "https://www.tph.mohw.gov.tw",
                                                              "value":  "TKA003"
                                                          }
                                                      ],
                                       "gender":  "female",
                                       "birthDate":  "1958-11-08"
                                   },
                      "request":  {
                                      "method":  "PUT",
                                      "url":  "Patient/tka-patient-003"
                                  }
                  },
                  {
                      "resource":  {
                                       "resourceType":  "Encounter",
                                       "id":  "tka-encounter-003",
                                       "status":  "finished",
                                       "class":  {
                                                     "system":  "http://terminology.hl7.org/CodeSystem/v3-ActCode",
                                                     "code":  "IMP",
                                                     "display":  "inpatient encounter"
                                                 },
                                       "subject":  {
                                                       "reference":  "Patient/tka-patient-003"
                                                   },
                                       "period":  {
                                                      "start":  "2024-09-01T08:30:00+08:00",
                                                      "end":  "2024-09-10T14:30:00+08:00"
                                                  }
                                   },
                      "request":  {
                                      "method":  "PUT",
                                      "url":  "Encounter/tka-encounter-003"
                                  }
                  },
                  {
                      "resource":  {
                                       "resourceType":  "Procedure",
                                       "id":  "tka-procedure-003",
                                       "status":  "completed",
                                       "code":  {
                                                    "coding":  [
                                                                   {
                                                                       "system":  "https://twcore.mohw.gov.tw/ig/twcore/CodeSystem/nhi-procedure",
                                                                       "code":  "64164B",
                                                                       "display":  "全人工膝關節置換術"
                                                                   },
                                                                   {
                                                                       "system":  "http://snomed.info/sct",
                                                                       "code":  "265157000",
                                                                       "display":  "Primary total knee replacement"
                                                                   },
                                                                   {
                                                                       "system":  "http://www.ama-assn.org/go/cpt",
                                                                       "code":  "27447",
                                                                       "display":  "Total knee arthroplasty"
                                                                   }
                                                               ]
                                                },
                                       "subject":  {
                                                       "reference":  "Patient/tka-patient-003"
                                                   },
                                       "encounter":  {
                                                         "reference":  "Encounter/tka-encounter-003"
                                                     },
                                       "performedDateTime":  "2024-09-02T09:45:00+08:00"
                                   },
                      "request":  {
                                      "method":  "PUT",
                                      "url":  "Procedure/tka-procedure-003"
                                  }
                  },
                  {
                      "resource":  {
                                       "resourceType":  "Patient",
                                       "id":  "tka-patient-004",
                                       "identifier":  [
                                                          {
                                                              "system":  "https://www.tph.mohw.gov.tw",
                                                              "value":  "TKA004"
                                                          }
                                                      ],
                                       "gender":  "male",
                                       "birthDate":  "1962-07-30"
                                   },
                      "request":  {
                                      "method":  "PUT",
                                      "url":  "Patient/tka-patient-004"
                                  }
                  },
                  {
                      "resource":  {
                                       "resourceType":  "Encounter",
                                       "id":  "tka-encounter-004",
                                       "status":  "finished",
                                       "class":  {
                                                     "system":  "http://terminology.hl7.org/CodeSystem/v3-ActCode",
                                                     "code":  "IMP",
                                                     "display":  "inpatient encounter"
                                                 },
                                       "subject":  {
                                                       "reference":  "Patient/tka-patient-004"
                                                   },
                                       "period":  {
                                                      "start":  "2024-09-15T09:00:00+08:00",
                                                      "end":  "2024-09-24T15:00:00+08:00"
                                                  }
                                   },
                      "request":  {
                                      "method":  "PUT",
                                      "url":  "Encounter/tka-encounter-004"
                                  }
                  },
                  {
                      "resource":  {
                                       "resourceType":  "Procedure",
                                       "id":  "tka-procedure-004",
                                       "status":  "completed",
                                       "code":  {
                                                    "coding":  [
                                                                   {
                                                                       "system":  "https://twcore.mohw.gov.tw/ig/twcore/CodeSystem/nhi-procedure",
                                                                       "code":  "97806A",
                                                                       "display":  "全人工膝關節置換術"
                                                                   },
                                                                   {
                                                                       "system":  "http://snomed.info/sct",
                                                                       "code":  "446633000",
                                                                       "display":  "Unilateral total knee replacement"
                                                                   },
                                                                   {
                                                                       "system":  "http://www.ama-assn.org/go/cpt",
                                                                       "code":  "27447",
                                                                       "display":  "Total knee arthroplasty"
                                                                   }
                                                               ]
                                                },
                                       "subject":  {
                                                       "reference":  "Patient/tka-patient-004"
                                                   },
                                       "encounter":  {
                                                         "reference":  "Encounter/tka-encounter-004"
                                                     },
                                       "performedDateTime":  "2024-09-16T10:30:00+08:00"
                                   },
                      "request":  {
                                      "method":  "PUT",
                                      "url":  "Procedure/tka-procedure-004"
                                  }
                  },
                  {
                      "resource":  {
                                       "resourceType":  "Patient",
                                       "id":  "tka-patient-005",
                                       "identifier":  [
                                                          {
                                                              "system":  "https://www.tph.mohw.gov.tw",
                                                              "value":  "TKA005"
                                                          }
                                                      ],
                                       "gender":  "female",
                                       "birthDate":  "1965-04-18"
                                   },
                      "request":  {
                                      "method":  "PUT",
                                      "url":  "Patient/tka-patient-005"
                                  }
                  },
                  {
                      "resource":  {
                                       "resourceType":  "Encounter",
                                       "id":  "tka-encounter-005",
                                       "status":  "finished",
                                       "class":  {
                                                     "system":  "http://terminology.hl7.org/CodeSystem/v3-ActCode",
                                                     "code":  "IMP",
                                                     "display":  "inpatient encounter"
                                                 },
                                       "subject":  {
                                                       "reference":  "Patient/tka-patient-005"
                                                   },
                                       "period":  {
                                                      "start":  "2024-10-01T08:00:00+08:00",
                                                      "end":  "2024-10-10T14:00:00+08:00"
                                                  }
                                   },
                      "request":  {
                                      "method":  "PUT",
                                      "url":  "Encounter/tka-encounter-005"
                                  }
                  },
                  {
                      "resource":  {
                                       "resourceType":  "Procedure",
                                       "id":  "tka-procedure-005",
                                       "status":  "completed",
                                       "code":  {
                                                    "coding":  [
                                                                   {
                                                                       "system":  "https://twcore.mohw.gov.tw/ig/twcore/CodeSystem/nhi-procedure",
                                                                       "code":  "97807B",
                                                                       "display":  "全人工膝關節置換術"
                                                                   },
                                                                   {
                                                                       "system":  "http://snomed.info/sct",
                                                                       "code":  "609588000",
                                                                       "display":  "Total knee replacement"
                                                                   },
                                                                   {
                                                                       "system":  "http://www.ama-assn.org/go/cpt",
                                                                       "code":  "27447",
                                                                       "display":  "Total knee arthroplasty"
                                                                   }
                                                               ]
                                                },
                                       "subject":  {
                                                       "reference":  "Patient/tka-patient-005"
                                                   },
                                       "encounter":  {
                                                         "reference":  "Encounter/tka-encounter-005"
                                                     },
                                       "performedDateTime":  "2024-10-02T11:00:00+08:00"
                                   },
                      "request":  {
                                      "method":  "PUT",
                                      "url":  "Procedure/tka-procedure-005"
                                  }
                  }
              ]
}
