{
  "medication_administration": {
    "resourceType": "Bundle",
    "id": "4c4afd04-c213-4f7a-a954-e00eba233d1a",
    "meta": {
      "lastUpdated": "2025-12-01T07:43:51.540+00:00"
    },
    "type": "searchset",
    "link": [
      {
        "relation": "self",
        "url": "https://hapi.fhir.org/baseR4/MedicationAdministration?_count=5"
      },
      {
        "relation": "next",
        "url": "https://hapi.fhir.org/baseR4?_getpages=4c4afd04-c213-4f7a-a954-e00eba233d1a&_getpagesoffset=5&_count=5&_pretty=true&_bundletype=searchset"
      }
    ],
    "entry": [
      {
        "fullUrl": "https://hapi.fhir.org/baseR4/MedicationAdministration/1435559",
        "resource": {
          "resourceType": "MedicationAdministration",
          "id": "1435559",
          "meta": {
            "versionId": "1",
            "lastUpdated": "2020-08-14T13:05:28.175+00:00",
            "source": "#tvLEla4c5udXxCGS"
          },
          "text": {
            "status": "generated",
            "div": "<div xmlns=\"http://www.w3.org/1999/xhtml\"><p><b>Generated Narrative with Details</b></p><p><b>id</b>: medadmin0301</p><p><b>contained</b>: , </p><p><b>status</b>: in-progress</p><p><b>medication</b>: id: med0301; Vancomycin Hydrochloride (VANCOMYCIN HYDROCHLORIDE) <span>(Details : {http://hl7.org/fhir/sid/ndc code '0069-2587-10' = 'n/a', given as 'Vancomycin Hydrochloride (VANCOMYCIN HYDROCHLORIDE)'})</span></p><p><b>subject</b>: <a>Donald Duck</a></p><p><b>context</b>: <a>encounter who leads to this prescription</a></p><p><b>effective</b>: 15/01/2015 2:30:00 PM --&gt; (ongoing)</p><h3>Performers</h3><table><tr><td>-</td><td><b>Actor</b></td></tr><tr><td>*</td><td><a>Patrick Pump</a></td></tr></table><p><b>reasonCode</b>: Given as Ordered <span>(Details : {http://terminology.hl7.org/CodeSystem/reason-medication-given code 'b' = 'Given as Ordered', given as 'Given as Ordered'})</span></p><p><b>request</b>: <a>MedicationRequest/medrx0318</a></p><h3>Dosages</h3><table><tr><td>-</td><td><b>Text</b></td><td><b>Route</b></td><td><b>Method</b></td><td><b>Dose</b></td></tr><tr><td>*</td><td>500mg IV q6h x 3 days</td><td>Intravenous route (qualifier value) <span>(Details : {SNOMED CT code '47625008' = 'Intravenous route', given as 'Intravenous route (qualifier value)'})</span></td><td>IV Push <span>(Details )</span></td><td>500 mg<span> (Details: UCUM code mg = 'mg')</span></td></tr></table><p><b>eventHistory</b>: Author's Signature. Generated Summary: id: signature; recorded: 01/02/2017 5:23:07 PM; </p></div>"
          },
          "contained": [
            {
              "resourceType": "Provenance",
              "id": "signature",
              "target": [
                {
                  "reference": "ServiceRequest/physiotherapy"
                }
              ],
              "recorded": "2017-02-01T17:23:07Z",
              "agent": [
                {
                  "role": [
                    {
                      "coding": [
                        {
                          "system": "http://terminology.hl7.org/CodeSystem/v3-ParticipationType",
                          "code": "AUT"
                        }
                      ]
                    }
                  ],
                  "who": {
                    "reference": "Practitioner/619072",
                    "display": "LEBROU Jean-Philippe"
                  }
                }
              ],
              "signature": [
                {
                  "type": [
                    {
                      "system": "urn:iso-astm:E1762-95:2013",
                      "code": "1.2.840.10065.1.12.1.1",
                      "display": "Author's Signature"
                    }
                  ],
                  "when": "2017-02-01T17:23:07Z",
                  "who": {
                    "reference": "Practitioner/example",
                    "display": "Dr Adam Careful"
                  },
                  "targetFormat": "application/fhir+xml",
                  "sigFormat": "application/signature+xml",
                  "data": "dGhpcyBibG9iIGlzIHNuaXBwZWQ="
                }
              ]
            }
          ],
          "status": "in-progress",
          "medicationReference": {
            "reference": "MedicationRequest/1435460"
          },
          "subject": {
            "reference": "Patient/1410235",
            "display": "Mangesh Mali"
          },
          "context": {
            "reference": "Encounter/1425904",
            "display": "encounter who leads to this prescription"
          },
          "effectivePeriod": {
            "start": "2015-01-15T14:30:00+01:00"
          },
          "performer": [
            {
              "actor": {
                "reference": "Practitioner/619072",
                "display": "Patrick Pump"
              }
            }
          ],
          "reasonCode": [
            {
              "coding": [
                {
                  "system": "http://terminology.hl7.org/CodeSystem/reason-medication-given",
                  "code": "b",
                  "display": "Given as Ordered"
                }
              ]
            }
          ],
          "request": {
            "reference": "MedicationRequest/1435460"
          },
          "dosage": {
            "text": "500mg IV q6h x 3 days",
            "route": {
              "coding": [
                {
                  "system": "http://snomed.info/sct",
                  "code": "47625008",
                  "display": "Intravenous route (qualifier value)"
                }
              ]
            },
            "method": {
              "text": "IV Push"
            },
            "dose": {
              "value": 500,
              "unit": "mg",
              "system": "http://unitsofmeasure.org",
              "code": "mg"
            }
          },
          "eventHistory": [
            {
              "reference": "#signature",
              "display": "Author's Signature"
            }
          ]
        },
        "search": {
          "mode": "match"
        }
      },
      {
        "fullUrl": "https://hapi.fhir.org/baseR4/MedicationAdministration/2004563",
        "resource": {
          "resourceType": "MedicationAdministration",
          "id": "2004563",
          "meta": {
            "versionId": "1",
            "lastUpdated": "2021-04-11T19:30:56.824+00:00",
            "source": "#8aHHinIBj8EL6G5X"
          },
          "status": "completed",
          "statusReason": [
            {
              "coding": [
                {
                  "system": "http://snomed.info/sct",
                  "code": "182862001",
                  "display": "Drug not taken - dislike taste"
                }
              ]
            }
          ],
          "category": {
            "coding": [
              {
                "system": "http://terminology.hl7.org/CodeSystem/medication-statement-category",
                "code": "inpatient",
                "display": "Inpatient"
              }
            ]
          },
          "medicationCodeableConcept": {
            "coding": [
              {
                "system": "http://snomed.info/sct",
                "code": "261000",
                "display": "Codeine phosphate"
              }
            ]
          },
          "subject": {
            "reference": "Patient/1456166"
          },
          "context": {
            "reference": "Encounter/45200"
          },
          "effectivePeriod": {
            "start": "2009-09-01T04:10:38.000+00:00",
            "end": "2009-09-01T04:10:38.000+00:00"
          },
          "performer": [
            {
              "actor": {
                "reference": "Practitioner/31679",
                "display": "martha11"
              }
            }
          ],
          "reasonCode": [
            {
              "coding": [
                {
                  "system": "http://snomed.info/sct",
                  "code": "109006",
                  "display": "Anxiety disorder of childhood OR adolescence"
                }
              ]
            }
          ],
          "dosage": {
            "site": {
              "coding": [
                {
                  "system": "http://snomed.info/sct",
                  "code": "116007",
                  "display": "Subcutaneous tissue of medial surface of index finger"
                }
              ]
            },
            "route": {
              "coding": [
                {
                  "system": "http://snomed.info/sct",
                  "code": "10547007",
                  "display": "Auricular use"
                }
              ]
            },
            "method": {
              "coding": [
                {
                  "system": "http://snomed.info/sct",
                  "code": "419747000",
                  "display": "Chew"
                }
              ]
            },
            "dose": {
              "value": 0.5,
              "unit": "g/dL",
              "system": "http://unitsofmeasure.org",
              "code": "g/dL"
            }
          }
        },
        "search": {
          "mode": "match"
        }
      },
      {
        "fullUrl": "https://hapi.fhir.org/baseR4/MedicationAdministration/2044478",
        "resource": {
          "resourceType": "MedicationAdministration",
          "id": "2044478",
          "meta": {
            "versionId": "1",
            "lastUpdated": "2021-04-20T08:00:43.457+00:00",
            "source": "#ArBOfon1iZrrOGyo"
          },
          "status": "completed",
          "statusReason": [
            {
              "coding": [
                {
                  "system": "http://snomed.info/sct",
                  "code": "182862001",
                  "display": "Drug not taken - dislike taste"
                }
              ]
            }
          ],
          "category": {
            "coding": [
              {
                "system": "http://terminology.hl7.org/CodeSystem/medication-statement-category",
                "code": "inpatient",
                "display": "Inpatient"
              }
            ]
          },
          "medicationCodeableConcept": {
            "coding": [
              {
                "system": "http://snomed.info/sct",
                "code": "261000",
                "display": "Codeine phosphate"
              }
            ]
          },
          "subject": {
            "reference": "Patient/1456166"
          },
          "context": {
            "reference": "Encounter/45200"
          },
          "effectivePeriod": {
            "start": "2009-09-01T04:10:38.000+00:00",
            "end": "2009-09-01T04:10:38.000+00:00"
          },
          "performer": [
            {
              "actor": {
                "reference": "Practitioner/31679",
                "display": "martha11"
              }
            }
          ],
          "reasonCode": [
            {
              "coding": [
                {
                  "system": "http://snomed.info/sct",
                  "code": "109006",
                  "display": "Anxiety disorder of childhood OR adolescence"
                }
              ]
            }
          ],
          "dosage": {
            "site": {
              "coding": [
                {
                  "system": "http://snomed.info/sct",
                  "code": "116007",
                  "display": "Subcutaneous tissue of medial surface of index finger"
                }
              ]
            },
            "route": {
              "coding": [
                {
                  "system": "http://snomed.info/sct",
                  "code": "10547007",
                  "display": "Auricular use"
                }
              ]
            },
            "method": {
              "coding": [
                {
                  "system": "http://snomed.info/sct",
                  "code": "419747000",
                  "display": "Chew"
                }
              ]
            },
            "dose": {
              "value": 0.5,
              "unit": "g/dL",
              "system": "http://unitsofmeasure.org",
              "code": "g/dL"
            }
          }
        },
        "search": {
          "mode": "match"
        }
      },
      {
        "fullUrl": "https://hapi.fhir.org/baseR4/MedicationAdministration/7002295",
        "resource": {
          "resourceType": "MedicationAdministration",
          "id": "7002295",
          "meta": {
            "versionId": "1",
            "lastUpdated": "2022-09-13T14:13:47.786+00:00",
            "source": "#V6K7jIka1ICdXHQ9",
            "tag": [
              {
                "system": "http://terminology.hl7.org/CodeSystem/v3-ActReason",
                "code": "HTEST",
                "display": "More health data"
              }
            ]
          },
          "text": {
            "status": "generated",
            "div": "<div xmlns=\"http://www.w3.org/1999/xhtml\"><p><b>Generated Narrative with Details</b></p><p><b>id</b>: medadmin0301</p><p><b>contained</b>: , </p><p><b>status</b>: in-progress</p><p><b>medication</b>: id: med0301; Vancomycin Hydrochloride (VANCOMYCIN HYDROCHLORIDE) <span>(Details : {http://hl7.org/fhir/sid/ndc code '0069-2587-10' = '0069-2587-10', given as 'Vancomycin Hydrochloride (VANCOMYCIN HYDROCHLORIDE)'})</span></p><p><b>subject</b>: <a>Donald Duck</a></p><p><b>context</b>: <a>encounter who leads to this prescription</a></p><p><b>effective</b>: 15/01/2015 2:30:00 PM --&gt; (ongoing)</p><h3>Performers</h3><table><tr><td>-</td><td><b>Actor</b></td></tr><tr><td>*</td><td><a>Patrick Pump</a></td></tr></table><p><b>reasonCode</b>: Given as Ordered <span>(Details : {http://terminology.hl7.org/CodeSystem/reason-medication-given code 'b' = 'Given as Ordered', given as 'Given as Ordered'})</span></p><p><b>request</b>: <a>MedicationRequest/medrx0318</a></p><h3>Dosages</h3><table><tr><td>-</td><td><b>Text</b></td><td><b>Route</b></td><td><b>Method</b></td><td><b>Dose</b></td></tr><tr><td>*</td><td>500mg IV q6h x 3 days</td><td>Intravenous route (qualifier value) <span>(Details : {SNOMED CT code '47625008' = 'Intravenous route', given as 'Intravenous route (qualifier value)'})</span></td><td>IV Push <span>(Details )</span></td><td>500 mg<span> (Details: UCUM code mg = 'mg')</span></td></tr></table><p><b>eventHistory</b>: Author's Signature. Generated Summary: id: signature; recorded: 01/02/2017 5:23:07 PM; </p></div>"
          },
          "contained": [
            {
              "resourceType": "Medication",
              "id": "med0301",
              "text": {
                "status": "generated",
                "div": "<div xmlns=\"http://www.w3.org/1999/xhtml\"><div class=\"hapiHeaderText\"> Vancomycin Hydrochloride (VANCOMYCIN HYDROCHLORIDE) </div></div>"
              },
              "code": {
                "coding": [
                  {
                    "system": "http://hl7.org/fhir/sid/ndc",
                    "code": "0069-2587-10",
                    "display": "Vancomycin Hydrochloride (VANCOMYCIN HYDROCHLORIDE)"
                  }
                ]
              }
            },
            {
              "resourceType": "Provenance",
              "id": "signature",
              "target": [
                {
                  "reference": "ServiceRequest/physiotherapy"
                }
              ],
              "recorded": "2017-02-01T17:23:07Z",
              "agent": [
                {
                  "role": [
                    {
                      "coding": [
                        {
                          "system": "http://terminology.hl7.org/CodeSystem/v3-ParticipationType",
                          "code": "AUT"
                        }
                      ]
                    }
                  ],
                  "who": {
                    "reference": "Practitioner/example",
                    "display": "Dr Adam Careful"
                  }
                }
              ],
              "signature": [
                {
                  "type": [
                    {
                      "system": "urn:iso-astm:E1762-95:2013",
                      "code": "1.2.840.10065.1.12.1.1",
                      "display": "Author's Signature"
                    }
                  ],
                  "when": "2017-02-01T17:23:07Z",
                  "who": {
                    "reference": "Practitioner/example",
                    "display": "Dr Adam Careful"
                  },
                  "targetFormat": "application/fhir+xml",
                  "sigFormat": "application/signature+xml",
                  "data": "dGhpcyBibG9iIGlzIHNuaXBwZWQ="
                }
              ]
            }
          ],
          "status": "in-progress",
          "medicationReference": {
            "reference": "#med0301"
          },
          "subject": {
            "reference": "Patient/pat1",
            "display": "Donald Duck"
          },
          "context": {
            "reference": "Encounter/example",
            "display": "encounter who leads to this prescription"
          },
          "effectivePeriod": {
            "start": "2015-01-15T14:30:00+01:00"
          },
          "performer": [
            {
              "actor": {
                "reference": "Practitioner/1",
                "display": "Patrick Pump"
              }
            }
          ],
          "reasonCode": [
            {
              "coding": [
                {
                  "system": "http://terminology.hl7.org/CodeSystem/reason-medication-given",
                  "code": "b",
                  "display": "Given as Ordered"
                }
              ]
            }
          ],
          "request": {
            "reference": "MedicationRequest/example"
          },
          "dosage": {
            "text": "500mg IV q6h x 3 days",
            "route": {
              "coding": [
                {
                  "system": "http://snomed.info/sct",
                  "code": "47625008",
                  "display": "Intravenous route (qualifier value)"
                }
              ]
            },
            "method": {
              "text": "IV Push"
            },
            "dose": {
              "value": 500,
              "unit": "mg",
              "system": "http://unitsofmeasure.org",
              "code": "mg"
            }
          },
          "eventHistory": [
            {
              "reference": "#signature",
              "display": "Author's Signature"
            }
          ]
        },
        "search": {
          "mode": "match"
        }
      },
      {
        "fullUrl": "https://hapi.fhir.org/baseR4/MedicationAdministration/7002576",
        "resource": {
          "resourceType": "MedicationAdministration",
          "id": "7002576",
          "meta": {
            "versionId": "1",
            "lastUpdated": "2022-09-14T07:29:00.599+00:00",
            "source": "#rnX5BIiNXbsCFOIn",
            "tag": [
              {
                "system": "http://terminology.hl7.org/CodeSystem/v3-ActReason",
                "code": "HTEST",
                "display": "More health data"
              }
            ]
          },
          "text": {
            "status": "generated",
            "div": "<div xmlns=\"http://www.w3.org/1999/xhtml\"><p><b>Generated Narrative with Details</b></p><p><b>id</b>: medadmin0302</p><p><b>contained</b>: </p><p><b>partOf</b>: <a>Procedure/biopsy</a></p><p><b>status</b>: completed</p><p><b>category</b>: Inpatient <span>(Details : {http://terminology.hl7.org/CodeSystem/medication-admin-category code 'inpatient' = 'Inpatient', given as 'Inpatient'})</span></p><p><b>medication</b>: id: med0317; Injection Solution (qualifier value) <span>(Details : {SNOMED CT code '385219001' = 'Injection solution', given as 'Injection Solution (qualifier value)'})</span></p><p><b>subject</b>: <a>Donald Duck</a></p><p><b>context</b>: <a>encounter who leads to this prescription</a></p><p><b>effective</b>: 15/01/2015 4:30:00 AM --&gt; 15/01/2015 2:30:00 PM</p><h3>Performers</h3><table><tr><td>-</td><td><b>Actor</b></td></tr><tr><td>*</td><td><a>Patrick Pump</a></td></tr></table><p><b>reasonCode</b>: Given as Ordered <span>(Details : {http://terminology.hl7.org/CodeSystem/reason-medication-given code 'b' = 'Given as Ordered', given as 'Given as Ordered'})</span></p><p><b>request</b>: <a>MedicationRequest/medrx0322</a></p><h3>Dosages</h3><table><tr><td>-</td><td><b>Text</b></td><td><b>Site</b></td><td><b>Route</b></td><td><b>Method</b></td><td><b>Dose</b></td><td><b>Rate[x]</b></td></tr><tr><td>*</td><td>KCl 20 mEq in 1 L 0.9%NS IV at 100 ml/hr</td><td>Structure of ligament of left superior vena cava <span>(Details : {SNOMED CT code '6073002' = 'Ligament of left superior vena cava', given as 'Structure of ligament of left superior vena cava'})</span></td><td>Intravenous route (qualifier value) <span>(Details : {SNOMED CT code '47625008' = 'Intravenous route', given as 'Intravenous route (qualifier value)'})</span></td><td>Continuous infusion <span>(Details )</span></td><td>20 meq<span> (Details: UCUM code meq = 'meq')</span></td><td>100 mL<span> (Details: UCUM code mL = 'mL')</span>/1 h<span> (Details: UCUM code h = 'h')</span></td></tr></table></div>"
          },
          "contained": [
            {
              "resourceType": "Medication",
              "id": "med0317",
              "text": {
                "status": "generated"
              },
              "form": {
                "coding": [
                  {
                    "system": "http://snomed.info/sct",
                    "code": "385219001",
                    "display": "Injection Solution (qualifier value)"
                  }
                ],
                "text": "Injection Solution (qualifier value)"
              },
              "ingredient": [
                {
                  "itemCodeableConcept": {
                    "coding": [
                      {
                        "system": "http://www.nlm.nih.gov/research/umls/rxnorm",
                        "code": "204520",
                        "display": "Potassium Chloride"
                      }
                    ]
                  },
                  "strength": {
                    "numerator": {
                      "value": 2,
                      "system": "http://unitsofmeasure.org",
                      "code": "meq"
                    },
                    "denominator": {
                      "value": 1,
                      "system": "http://unitsofmeasure.org",
                      "code": "mL"
                    }
                  }
                },
                {
                  "itemCodeableConcept": {
                    "coding": [
                      {
                        "system": "http://www.nlm.nih.gov/research/umls/rxnorm",
                        "code": "313002",
                        "display": "Sodium Chloride 0.9% injectable solution"
                      }
                    ]
                  },
                  "strength": {
                    "numerator": {
                      "value": 0.9,
                      "system": "http://unitsofmeasure.org",
                      "code": "g"
                    },
                    "denominator": {
                      "value": 100,
                      "system": "http://unitsofmeasure.org",
                      "code": "mL"
                    }
                  }
                }
              ]
            }
          ],
          "partOf": [
            {
              "reference": "Procedure/biopsy"
            }
          ],
          "status": "completed",
          "category": {
            "coding": [
              {
                "system": "http://terminology.hl7.org/CodeSystem/medication-admin-category",
                "code": "inpatient",
                "display": "Inpatient"
              }
            ]
          },
          "medicationReference": {
            "reference": "#med0317"
          },
          "subject": {
            "reference": "Patient/pat1",
            "display": "Donald Duck"
          },
          "context": {
            "reference": "Encounter/example",
            "display": "encounter who leads to this prescription"
          },
          "effectivePeriod": {
            "start": "2015-01-15T04:30:00+01:00",
            "end": "2015-01-15T14:30:00+01:00"
          },
          "performer": [
            {
              "actor": {
                "reference": "Practitioner/1",
                "display": "Patrick Pump"
              }
            }
          ],
          "reasonCode": [
            {
              "coding": [
                {
                  "system": "http://terminology.hl7.org/CodeSystem/reason-medication-given",
                  "code": "b",
                  "display": "Given as Ordered"
                }
              ]
            }
          ],
          "dosage": {
            "text": "KCl 20 mEq in 1 L 0.9%NS IV at 100 ml/hr",
            "site": {
              "coding": [
                {
                  "system": "http://snomed.info/sct",
                  "code": "6073002",
                  "display": "Structure of ligament of left superior vena cava"
                }
              ]
            },
            "route": {
              "coding": [
                {
                  "system": "http://snomed.info/sct",
                  "code": "47625008",
                  "display": "Intravenous route (qualifier value)"
                }
              ]
            },
            "method": {
              "text": "Continuous infusion"
            },
            "dose": {
              "value": 20,
              "unit": "meq",
              "system": "http://unitsofmeasure.org",
              "code": "meq"
            },
            "rateRatio": {
              "numerator": {
                "value": 100,
                "system": "http://unitsofmeasure.org",
                "code": "mL"
              },
              "denominator": {
                "value": 1,
                "system": "http://unitsofmeasure.org",
                "code": "h"
              }
            }
          }
        },
        "search": {
          "mode": "match"
        }
      }
    ]
  }
}