{
  "resourceType": "Bundle",
  "type": "collection",
  "entry": [
    {
      "resource": {
        "resourceType": "Patient",
        "id": "chronic-patient-001",
        "active": true,
        "identifier": [
          {
            "system": "http://www.cgmh.org.tw/patient-id",
            "value": "CH001234567"
          }
        ],
        "name": [
          {
            "family": "劉",
            "given": ["文傑"]
          }
        ],
        "gender": "male",
        "birthDate": "1960-05-15"
      }
    },
    {
      "resource": {
        "resourceType": "Encounter",
        "id": "chronic-encounter-001",
        "status": "finished",
        "class": {
          "system": "http://terminology.hl7.org/CodeSystem/v3-ActCode",
          "code": "AMB",
          "display": "ambulatory"
        },
        "type": [
          {
            "coding": [
              {
                "system": "http://www.nhi.gov.tw/claim-type",
                "code": "E1",
                "display": "慢性病連續處方箋"
              }
            ]
          }
        ],
        "subject": {
          "reference": "Patient/chronic-patient-001"
        },
        "period": {
          "start": "2025-10-15T09:30:00+08:00",
          "end": "2025-10-15T10:00:00+08:00"
        }
      }
    },
    {
      "resource": {
        "resourceType": "Procedure",
        "id": "chronic-proc-001",
        "status": "completed",
        "code": {
          "coding": [
            {
              "system": "http://www.nhi.gov.tw/codes",
              "code": "00155A",
              "display": "慢性病診察費"
            }
          ]
        },
        "subject": {
          "reference": "Patient/chronic-patient-001"
        },
        "encounter": {
          "reference": "Encounter/chronic-encounter-001"
        },
        "performedDateTime": "2025-10-15T09:30:00+08:00"
      }
    },
    {
      "resource": {
        "resourceType": "MedicationRequest",
        "id": "chronic-med-001",
        "status": "completed",
        "intent": "order",
        "medicationCodeableConcept": {
          "coding": [
            {
              "system": "http://www.whocc.no/atc",
              "code": "C09AA05",
              "display": "Ramipril"
            }
          ],
          "text": "慢性病連續處方箋-降血壓藥"
        },
        "subject": {
          "reference": "Patient/chronic-patient-001"
        },
        "encounter": {
          "reference": "Encounter/chronic-encounter-001"
        },
        "authoredOn": "2025-10-15",
        "dispenseRequest": {
          "validityPeriod": {
            "start": "2025-10-15",
            "end": "2026-01-15"
          },
          "expectedSupplyDuration": {
            "value": 28,
            "unit": "days",
            "system": "http://unitsofmeasure.org",
            "code": "d"
          },
          "numberOfRepeatsAllowed": 3
        }
      }
    },
    {
      "resource": {
        "resourceType": "Patient",
        "id": "chronic-patient-002",
        "active": true,
        "identifier": [
          {
            "system": "http://www.cgmh.org.tw/patient-id",
            "value": "CH002345678"
          }
        ],
        "name": [
          {
            "family": "蔡",
            "given": ["秀珍"]
          }
        ],
        "gender": "female",
        "birthDate": "1968-11-20"
      }
    },
    {
      "resource": {
        "resourceType": "Encounter",
        "id": "chronic-encounter-002",
        "status": "finished",
        "class": {
          "system": "http://terminology.hl7.org/CodeSystem/v3-ActCode",
          "code": "AMB",
          "display": "ambulatory"
        },
        "type": [
          {
            "coding": [
              {
                "system": "http://www.nhi.gov.tw/claim-type",
                "code": "04",
                "display": "慢性病案件"
              }
            ]
          }
        ],
        "subject": {
          "reference": "Patient/chronic-patient-002"
        },
        "period": {
          "start": "2025-10-20T14:00:00+08:00",
          "end": "2025-10-20T14:30:00+08:00"
        }
      }
    },
    {
      "resource": {
        "resourceType": "Procedure",
        "id": "chronic-proc-002",
        "status": "completed",
        "code": {
          "coding": [
            {
              "system": "http://www.nhi.gov.tw/codes",
              "code": "00157A",
              "display": "慢性病診察費"
            }
          ]
        },
        "subject": {
          "reference": "Patient/chronic-patient-002"
        },
        "encounter": {
          "reference": "Encounter/chronic-encounter-002"
        },
        "performedDateTime": "2025-10-20T14:00:00+08:00"
      }
    },
    {
      "resource": {
        "resourceType": "MedicationRequest",
        "id": "chronic-med-002",
        "status": "active",
        "intent": "order",
        "medicationCodeableConcept": {
          "coding": [
            {
              "system": "http://www.whocc.no/atc",
              "code": "A10BA02",
              "display": "Metformin"
            }
          ],
          "text": "慢性病連續處方箋-降血糖藥"
        },
        "subject": {
          "reference": "Patient/chronic-patient-002"
        },
        "encounter": {
          "reference": "Encounter/chronic-encounter-002"
        },
        "authoredOn": "2025-10-20",
        "dispenseRequest": {
          "validityPeriod": {
            "start": "2025-10-20",
            "end": "2026-01-20"
          },
          "expectedSupplyDuration": {
            "value": 30,
            "unit": "days",
            "system": "http://unitsofmeasure.org",
            "code": "d"
          },
          "numberOfRepeatsAllowed": 3
        }
      }
    }
  ]
}
