{
  "downloaded_at": "2025-12-01T13:45:30.010696",
  "disease_type": "diarrhea",
  "total_conditions": 5,
  "total_patients": 3,
  "conditions": [
    {
      "resourceType": "Condition",
      "resource": {
        "resourceType": "Condition",
        "id": "2804742",
        "meta": {
          "versionId": "1",
          "lastUpdated": "2022-01-30T10:01:32.405+00:00",
          "source": "#jQfldOK6kSocohSw"
        },
        "identifier": [
          {
            "use": "usual",
            "system": "urn:trinhcongminh",
            "value": "7424717960_30012022165201386068_30012022170020784230"
          }
        ],
        "clinicalStatus": {
          "coding": [
            {
              "system": "http://terminology.hl7.org/CodeSystem/condition-clinical",
              "version": "4.0.1",
              "code": "active",
              "userSelected": false
            }
          ],
          "text": "active"
        },
        "verificationStatus": {
          "coding": [
            {
              "system": "http://terminology.hl7.org/CodeSystem/condition-ver-status",
              "version": "4.0.1",
              "code": "confirmed",
              "userSelected": false
            }
          ],
          "text": "confirmed"
        },
        "severity": {
          "coding": [
            {
              "system": "http://snomed.info/sct",
              "version": "4.0.1",
              "code": "255604002",
              "userSelected": false
            }
          ],
          "text": "Nhẹ"
        },
        "code": {
          "coding": [
            {
              "system": "http://hl7.org/fhir/sid/icd-10",
              "version": "None",
              "code": "A00.0",
              "userSelected": false
            }
          ],
          "text": "A00.0: Bệnh tả do Vibrio cholerae 01, typ sinh học cholerae"
        },
        "subject": {
          "reference": "Patient/2804737",
          "type": "Patient",
          "display": "Phùng Văn Hoan"
        },
        "encounter": {
          "reference": "Encounter/2804738",
          "type": "Encounter"
        },
        "asserter": {
          "reference": "Practitioner/2804733",
          "type": "Practitioner",
          "display": "Trịnh Công Minh"
        },
        "note": [
          {
            "text": "discharge condition by doctor"
          }
        ]
      }
    },
    {
      "resourceType": "Condition",
      "resource": {
        "resourceType": "Condition",
        "id": "2816503",
        "meta": {
          "versionId": "1",
          "lastUpdated": "2022-02-17T12:19:14.372+00:00",
          "source": "#v1eJIC1fFEujJAI4"
        },
        "text": {
          "status": "generated",
          "div": "<div xmlns=\"http://www.w3.org/1999/xhtml\">Brûlure et corrosion, partie du corps non précisée T30.0</div>"
        },
        "clinicalStatus": {
          "coding": [
            {
              "system": "http://terminology.hl7.org/CodeSystem/condition-clinical",
              "code": "active"
            }
          ]
        },
        "verificationStatus": {
          "coding": [
            {
              "system": "http://terminology.hl7.org/CodeSystem/condition-ver-status",
              "code": "confirmed"
            }
          ]
        },
        "category": [
          {
            "coding": [
              {
                "system": "http://terminology.hl7.org/CodeSystem/condition-category",
                "code": "encounter-diagnosis",
                "display": "Encounter Diagnosis"
              },
              {
                "system": "http://hl7.org/fhir/sid/icd-10",
                "code": "ICD-10",
                "display": "Diagnosis"
              }
            ]
          }
        ],
        "severity": {
          "coding": [
            {
              "system": "http://snomed.info/sct",
              "code": "24484000",
              "display": "Severe"
            }
          ]
        },
        "code": {
          "coding": [
            {
              "system": "http://hl7.org/fhir/sid/icd-10",
              "code": "A00.0",
              "display": "Cholera due to Vibrio cholerae 01, biovar cholerae"
            }
          ],
          "text": "Oreille Brulee"
        },
        "subject": {
          "reference": "Patient/2816498"
        },
        "onsetDateTime": "2020-02-24"
      }
    },
    {
      "resourceType": "Condition",
      "resource": {
        "resourceType": "Condition",
        "id": "2841129",
        "meta": {
          "versionId": "1",
          "lastUpdated": "2022-03-18T09:35:00.131+00:00",
          "source": "#k96rS1ikfnxq9y4V"
        },
        "text": {
          "status": "generated",
          "div": "<div xmlns=\"http://www.w3.org/1999/xhtml\">A Vibrio cholerae 01, biovar cholerae A00.0</div>"
        },
        "clinicalStatus": {
          "coding": [
            {
              "system": "http://terminology.hl7.org/CodeSystem/condition-clinical",
              "code": "active"
            }
          ]
        },
        "verificationStatus": {
          "coding": [
            {
              "system": "http://terminology.hl7.org/CodeSystem/condition-ver-status",
              "code": "confirmed"
            }
          ]
        },
        "category": [
          {
            "coding": [
              {
                "system": "http://terminology.hl7.org/CodeSystem/condition-category",
                "code": "encounter-diagnosis",
                "display": "Encounter Diagnosis"
              },
              {
                "system": "http://hl7.org/fhir/sid/icd-10",
                "code": "ICD-10",
                "display": "Diagnosis"
              }
            ]
          }
        ],
        "severity": {
          "coding": [
            {
              "system": "http://snomed.info/sct",
              "code": "24484000",
              "display": "Severe"
            }
          ]
        },
        "code": {
          "coding": [
            {
              "system": "http://hl7.org/fhir/sid/icd-10",
              "code": "A00.0",
              "display": "A Vibrio cholerae 01, biovar cholerae"
            }
          ],
          "text": "A Vibrio cholerae 01, biovar cholerae"
        },
        "bodySite": [
          {
            "coding": [
              {
                "system": "http://snomed.info/sct",
                "code": "49521004",
                "display": "Left external ear structure"
              }
            ],
            "text": "Left Ear"
          }
        ],
        "subject": {
          "reference": "Patient/2816498"
        },
        "onsetDateTime": "2020-12-25"
      }
    },
    {
      "resourceType": "Condition",
      "resource": {
        "resourceType": "Condition",
        "id": "50639895",
        "meta": {
          "versionId": "2",
          "lastUpdated": "2025-10-22T23:38:31.729+00:00",
          "source": "#DHfs62nuFndakPAV"
        },
        "clinicalStatus": {
          "coding": [
            {
              "system": "http://terminology.hl7.org/CodeSystem/condition-clinical",
              "code": "active"
            }
          ]
        },
        "verificationStatus": {
          "coding": [
            {
              "system": "http://terminology.hl7.org/CodeSystem/condition-ver-status",
              "code": "confirmed"
            }
          ]
        },
        "code": {
          "coding": [
            {
              "system": "http://hl7.org/fhir/sid/icd-10",
              "code": "A09",
              "display": "感染性腸炎"
            }
          ]
        },
        "subject": {
          "reference": "Patient/50432065"
        },
        "onsetDateTime": "2025-10-15T00:00:00.000Z",
        "recordedDate": "2025-10-22T23:37:50.988Z"
      }
    },
    {
      "resourceType": "Condition",
      "resource": {
        "resourceType": "Condition",
        "id": "50752789",
        "meta": {
          "versionId": "1",
          "lastUpdated": "2025-10-23T15:22:40.332+00:00",
          "source": "#qwZDaSaKheQNQYYn"
        },
        "clinicalStatus": {
          "coding": [
            {
              "system": "http://terminology.hl7.org/CodeSystem/condition-clinical",
              "code": "active"
            }
          ]
        },
        "verificationStatus": {
          "coding": [
            {
              "system": "http://terminology.hl7.org/CodeSystem/condition-ver-status",
              "code": "confirmed"
            }
          ]
        },
        "code": {
          "coding": [
            {
              "system": "http://hl7.org/fhir/sid/icd-10",
              "code": "A09",
              "display": "感染性腸炎"
            }
          ]
        },
        "subject": {
          "reference": "Patient/50432065"
        },
        "onsetDateTime": "2025-10-15T00:00:00.000Z",
        "recordedDate": "2025-10-23T15:22:38.503Z"
      }
    }
  ],
  "patients": [
    {
      "resourceType": "Patient",
      "resource": {
        "resourceType": "Patient",
        "id": "2816498",
        "meta": {
          "versionId": "1",
          "lastUpdated": "2025-08-29T11:29:08.406+00:00",
          "source": "#q8fHghgZAyVl1pNd"
        },
        "text": {
          "status": "generated",
          "div": "<div xmlns=\"http://www.w3.org/1999/xhtml\"><div class=\"hapiHeaderText\">ZAIM <b>ZZZTEST </b></div><table class=\"hapiPropertyTable\"><tbody><tr><td>Identifier</td><td>WEV1</td></tr><tr><td>Date of birth</td><td><span>05 June 1989</span></td></tr></tbody></table></div>"
        },
        "identifier": [
          {
            "use": "usual",
            "type": {
              "coding": [
                {
                  "system": "http://hl7.org/fhir/v2/0203",
                  "code": "MR",
                  "display": "Medical record number"
                }
              ],
              "text": "MRN"
            },
            "system": "urn:oid:1.1.1.1.1.1",
            "value": "WEV1"
          }
        ],
        "active": true,
        "name": [
          {
            "use": "official",
            "text": "ZZZTEST, ZAIM",
            "family": "ZZZTEST",
            "given": [
              "ZAIM"
            ]
          }
        ],
        "gender": "male",
        "birthDate": "1989-06-05"
      }
    },
    {
      "resourceType": "Patient",
      "resource": {
        "resourceType": "Patient",
        "id": "50432065",
        "meta": {
          "versionId": "1",
          "lastUpdated": "2025-10-18T08:29:41.753+00:00",
          "source": "#ksA9cXG59U8jPBTE"
        },
        "text": {
          "status": "generated",
          "div": "<div xmlns=\"http://www.w3.org/1999/xhtml\"><div class=\"hapiHeaderText\"/><table class=\"hapiPropertyTable\"><tbody><tr><td>Address</td><td/></tr><tr><td>Date of birth</td><td><span>02 November 1976</span></td></tr></tbody></table></div>"
        },
        "name": [
          {
            "text": "哲二"
          }
        ],
        "telecom": [
          {
            "system": "phone",
            "value": "3211111"
          }
        ],
        "gender": "male",
        "birthDate": "1976-11-02",
        "address": [
          {
            "text": "3331213"
          }
        ],
        "managingOrganization": {
          "reference": "Organization/970efe60-e52d-4c46-9090-5c843e40240e",
          "display": "Ysbyty Glangwili"
        }
      }
    },
    {
      "resourceType": "Patient",
      "resource": {
        "resourceType": "Patient",
        "id": "2804737",
        "meta": {
          "versionId": "1",
          "lastUpdated": "2025-08-29T11:15:59.810+00:00",
          "source": "#W8NCw2C4EsVAzKJa"
        },
        "text": {
          "status": "generated",
          "div": "<div xmlns=\"http://www.w3.org/1999/xhtml\"><div class=\"hapiHeaderText\">Văn Hoan <b>PHÙNG </b></div><table class=\"hapiPropertyTable\"><tbody><tr><td>Identifier</td><td>7424717960</td></tr><tr><td>Address</td><td><span>268 Lý Thường Kiệt Phường 14 </span><br/><span>Thành phố Hồ Chí Minh </span><span>VietNam </span></td></tr><tr><td>Date of birth</td><td><span>23 January 2022</span></td></tr></tbody></table></div>"
        },
        "identifier": [
          {
            "use": "usual",
            "type": {
              "coding": [
                {
                  "system": "http://terminology.hl7.org/CodeSystem/v2-0203",
                  "version": "None",
                  "code": "SB",
                  "userSelected": false
                }
              ]
            },
            "system": "urn:trinhcongminh",
            "value": "7424717960"
          }
        ],
        "name": [
          {
            "use": "official",
            "family": "Phùng",
            "given": [
              "Văn Hoan"
            ]
          }
        ],
        "telecom": [
          {
            "system": "phone",
            "value": "0347973801",
            "use": "mobile"
          }
        ],
        "gender": "male",
        "birthDate": "2022-01-23",
        "address": [
          {
            "use": "home",
            "type": "both",
            "line": [
              "268 Lý Thường Kiệt Phường 14"
            ],
            "city": "Thành phố Hồ Chí Minh",
            "district": "Quận 10",
            "postalCode": "70000",
            "country": "VietNam"
          },
          {
            "use": "work",
            "type": "both",
            "line": [
              "268 Lý Thường Kiệt Phường 14"
            ],
            "city": "Thành phố Hồ Chí Minh",
            "district": "Quận 10",
            "postalCode": "70000",
            "country": "VietNam"
          }
        ],
        "contact": [
          {
            "relationship": [
              {
                "coding": [
                  {
                    "system": "http://terminology.hl7.org/CodeSystem/v2-0131",
                    "version": "4.0.1",
                    "code": "C",
                    "userSelected": false
                  }
                ],
                "text": "C"
              }
            ],
            "name": {
              "use": "official",
              "family": "Trần",
              "given": [
                "Thị F"
              ]
            },
            "telecom": [
              {
                "system": "phone",
                "value": "0347973802",
                "use": "mobile"
              }
            ],
            "address": {
              "use": "home",
              "type": "both",
              "line": [
                "268 Lý Thường Kiệt Phường 14"
              ],
              "city": "Thành phố Hồ Chí Minh",
              "district": "Quận 10",
              "postalCode": "70000",
              "country": "VietNam"
            },
            "gender": "female"
          }
        ]
      }
    }
  ]
}