{
  "resourceType": "Bundle",
  "type": "transaction",
  "entry": [
    {
      "resource": {
        "resourceType": "Patient",
        "id": "TW00362",
        "identifier": [
          {
            "system": "http://www.moi.gov.tw/",
            "value": "TW00362"
          }
        ],
        "active": true,
        "name": [
          {
            "use": "official",
            "text": "測試病患00362"
          }
        ],
        "gender": "female",
        "birthDate": "1998-09-23"
      },
      "request": {
        "method": "PUT",
        "url": "Patient/TW00362"
      }
    },
    {
      "resource": {
        "resourceType": "Encounter",
        "id": "ENC05362",
        "status": "finished",
        "class": {
          "system": "http://terminology.hl7.org/CodeSystem/v3-ActCode",
          "code": "IMP",
          "display": "住院"
        },
        "subject": {
          "reference": "Patient/TW00362"
        },
        "period": {
          "start": "2025-11-12T18:02:00",
          "end": "2025-11-17T18:02:00"
        },
        "serviceProvider": {
          "reference": "Organization/HOSP001",
          "display": "測試醫院"
        }
      },
      "request": {
        "method": "PUT",
        "url": "Encounter/ENC05362"
      }
    },
    {
      "resource": {
        "resourceType": "Condition",
        "id": "COND08362",
        "clinicalStatus": {
          "coding": [
            {
              "system": "http://terminology.hl7.org/CodeSystem/condition-clinical",
              "code": "active"
            }
          ]
        },
        "verificationStatus": {
          "coding": [
            {
              "system": "http://terminology.hl7.org/CodeSystem/condition-ver-status",
              "code": "confirmed"
            }
          ]
        },
        "code": {
          "coding": [
            {
              "system": "http://hl7.org/fhir/sid/icd-10",
              "code": "I10",
              "display": "高血壓"
            }
          ]
        },
        "subject": {
          "reference": "Patient/TW00362"
        },
        "encounter": {
          "reference": "Encounter/ENC05362"
        }
      },
      "request": {
        "method": "PUT",
        "url": "Condition/COND08362"
      }
    },
    {
      "resource": {
        "resourceType": "Patient",
        "id": "TW00363",
        "identifier": [
          {
            "system": "http://www.moi.gov.tw/",
            "value": "TW00363"
          }
        ],
        "active": true,
        "name": [
          {
            "use": "official",
            "text": "測試病患00363"
          }
        ],
        "gender": "male",
        "birthDate": "1990-10-04"
      },
      "request": {
        "method": "PUT",
        "url": "Patient/TW00363"
      }
    },
    {
      "resource": {
        "resourceType": "Encounter",
        "id": "ENC05363",
        "status": "finished",
        "class": {
          "system": "http://terminology.hl7.org/CodeSystem/v3-ActCode",
          "code": "IMP",
          "display": "住院"
        },
        "subject": {
          "reference": "Patient/TW00363"
        },
        "period": {
          "start": "2025-10-29T10:26:00",
          "end": "2025-11-03T10:26:00"
        },
        "serviceProvider": {
          "reference": "Organization/HOSP001",
          "display": "測試醫院"
        }
      },
      "request": {
        "method": "PUT",
        "url": "Encounter/ENC05363"
      }
    },
    {
      "resource": {
        "resourceType": "Condition",
        "id": "COND08363",
        "clinicalStatus": {
          "coding": [
            {
              "system": "http://terminology.hl7.org/CodeSystem/condition-clinical",
              "code": "active"
            }
          ]
        },
        "verificationStatus": {
          "coding": [
            {
              "system": "http://terminology.hl7.org/CodeSystem/condition-ver-status",
              "code": "confirmed"
            }
          ]
        },
        "code": {
          "coding": [
            {
              "system": "http://hl7.org/fhir/sid/icd-10",
              "code": "I10",
              "display": "高血壓"
            }
          ]
        },
        "subject": {
          "reference": "Patient/TW00363"
        },
        "encounter": {
          "reference": "Encounter/ENC05363"
        }
      },
      "request": {
        "method": "PUT",
        "url": "Condition/COND08363"
      }
    },
    {
      "resource": {
        "resourceType": "Patient",
        "id": "TW00364",
        "identifier": [
          {
            "system": "http://www.moi.gov.tw/",
            "value": "TW00364"
          }
        ],
        "active": true,
        "name": [
          {
            "use": "official",
            "text": "測試病患00364"
          }
        ],
        "gender": "female",
        "birthDate": "1969-07-01"
      },
      "request": {
        "method": "PUT",
        "url": "Patient/TW00364"
      }
    },
    {
      "resource": {
        "resourceType": "Encounter",
        "id": "ENC05364",
        "status": "finished",
        "class": {
          "system": "http://terminology.hl7.org/CodeSystem/v3-ActCode",
          "code": "IMP",
          "display": "住院"
        },
        "subject": {
          "reference": "Patient/TW00364"
        },
        "period": {
          "start": "2025-10-01T15:48:00",
          "end": "2025-10-07T15:48:00"
        },
        "serviceProvider": {
          "reference": "Organization/HOSP001",
          "display": "測試醫院"
        }
      },
      "request": {
        "method": "PUT",
        "url": "Encounter/ENC05364"
      }
    },
    {
      "resource": {
        "resourceType": "Condition",
        "id": "COND08364",
        "clinicalStatus": {
          "coding": [
            {
              "system": "http://terminology.hl7.org/CodeSystem/condition-clinical",
              "code": "active"
            }
          ]
        },
        "verificationStatus": {
          "coding": [
            {
              "system": "http://terminology.hl7.org/CodeSystem/condition-ver-status",
              "code": "confirmed"
            }
          ]
        },
        "code": {
          "coding": [
            {
              "system": "http://hl7.org/fhir/sid/icd-10",
              "code": "J18.9",
              "display": "肺炎"
            }
          ]
        },
        "subject": {
          "reference": "Patient/TW00364"
        },
        "encounter": {
          "reference": "Encounter/ENC05364"
        }
      },
      "request": {
        "method": "PUT",
        "url": "Condition/COND08364"
      }
    },
    {
      "resource": {
        "resourceType": "Patient",
        "id": "TW00365",
        "identifier": [
          {
            "system": "http://www.moi.gov.tw/",
            "value": "TW00365"
          }
        ],
        "active": true,
        "name": [
          {
            "use": "official",
            "text": "測試病患00365"
          }
        ],
        "gender": "female",
        "birthDate": "1976-12-06"
      },
      "request": {
        "method": "PUT",
        "url": "Patient/TW00365"
      }
    },
    {
      "resource": {
        "resourceType": "Encounter",
        "id": "ENC05365",
        "status": "finished",
        "class": {
          "system": "http://terminology.hl7.org/CodeSystem/v3-ActCode",
          "code": "IMP",
          "display": "住院"
        },
        "subject": {
          "reference": "Patient/TW00365"
        },
        "period": {
          "start": "2025-11-01T11:52:00",
          "end": "2025-11-08T11:52:00"
        },
        "serviceProvider": {
          "reference": "Organization/HOSP001",
          "display": "測試醫院"
        }
      },
      "request": {
        "method": "PUT",
        "url": "Encounter/ENC05365"
      }
    },
    {
      "resource": {
        "resourceType": "Condition",
        "id": "COND08365",
        "clinicalStatus": {
          "coding": [
            {
              "system": "http://terminology.hl7.org/CodeSystem/condition-clinical",
              "code": "active"
            }
          ]
        },
        "verificationStatus": {
          "coding": [
            {
              "system": "http://terminology.hl7.org/CodeSystem/condition-ver-status",
              "code": "confirmed"
            }
          ]
        },
        "code": {
          "coding": [
            {
              "system": "http://hl7.org/fhir/sid/icd-10",
              "code": "I10",
              "display": "高血壓"
            }
          ]
        },
        "subject": {
          "reference": "Patient/TW00365"
        },
        "encounter": {
          "reference": "Encounter/ENC05365"
        }
      },
      "request": {
        "method": "PUT",
        "url": "Condition/COND08365"
      }
    },
    {
      "resource": {
        "resourceType": "Patient",
        "id": "TW00366",
        "identifier": [
          {
            "system": "http://www.moi.gov.tw/",
            "value": "TW00366"
          }
        ],
        "active": true,
        "name": [
          {
            "use": "official",
            "text": "測試病患00366"
          }
        ],
        "gender": "male",
        "birthDate": "1964-09-08"
      },
      "request": {
        "method": "PUT",
        "url": "Patient/TW00366"
      }
    },
    {
      "resource": {
        "resourceType": "Encounter",
        "id": "ENC05366",
        "status": "finished",
        "class": {
          "system": "http://terminology.hl7.org/CodeSystem/v3-ActCode",
          "code": "IMP",
          "display": "住院"
        },
        "subject": {
          "reference": "Patient/TW00366"
        },
        "period": {
          "start": "2025-11-19T20:44:00",
          "end": "2025-11-24T20:44:00"
        },
        "serviceProvider": {
          "reference": "Organization/HOSP001",
          "display": "測試醫院"
        }
      },
      "request": {
        "method": "PUT",
        "url": "Encounter/ENC05366"
      }
    },
    {
      "resource": {
        "resourceType": "Condition",
        "id": "COND08366",
        "clinicalStatus": {
          "coding": [
            {
              "system": "http://terminology.hl7.org/CodeSystem/condition-clinical",
              "code": "active"
            }
          ]
        },
        "verificationStatus": {
          "coding": [
            {
              "system": "http://terminology.hl7.org/CodeSystem/condition-ver-status",
              "code": "confirmed"
            }
          ]
        },
        "code": {
          "coding": [
            {
              "system": "http://hl7.org/fhir/sid/icd-10",
              "code": "I10",
              "display": "高血壓"
            }
          ]
        },
        "subject": {
          "reference": "Patient/TW00366"
        },
        "encounter": {
          "reference": "Encounter/ENC05366"
        }
      },
      "request": {
        "method": "PUT",
        "url": "Condition/COND08366"
      }
    },
    {
      "resource": {
        "resourceType": "Patient",
        "id": "TW00367",
        "identifier": [
          {
            "system": "http://www.moi.gov.tw/",
            "value": "TW00367"
          }
        ],
        "active": true,
        "name": [
          {
            "use": "official",
            "text": "測試病患00367"
          }
        ],
        "gender": "male",
        "birthDate": "1963-04-27"
      },
      "request": {
        "method": "PUT",
        "url": "Patient/TW00367"
      }
    },
    {
      "resource": {
        "resourceType": "Encounter",
        "id": "ENC05367",
        "status": "finished",
        "class": {
          "system": "http://terminology.hl7.org/CodeSystem/v3-ActCode",
          "code": "IMP",
          "display": "住院"
        },
        "subject": {
          "reference": "Patient/TW00367"
        },
        "period": {
          "start": "2025-10-14T16:30:00",
          "end": "2025-10-19T16:30:00"
        },
        "serviceProvider": {
          "reference": "Organization/HOSP001",
          "display": "測試醫院"
        }
      },
      "request": {
        "method": "PUT",
        "url": "Encounter/ENC05367"
      }
    },
    {
      "resource": {
        "resourceType": "Condition",
        "id": "COND08367",
        "clinicalStatus": {
          "coding": [
            {
              "system": "http://terminology.hl7.org/CodeSystem/condition-clinical",
              "code": "active"
            }
          ]
        },
        "verificationStatus": {
          "coding": [
            {
              "system": "http://terminology.hl7.org/CodeSystem/condition-ver-status",
              "code": "confirmed"
            }
          ]
        },
        "code": {
          "coding": [
            {
              "system": "http://hl7.org/fhir/sid/icd-10",
              "code": "J18.9",
              "display": "肺炎"
            }
          ]
        },
        "subject": {
          "reference": "Patient/TW00367"
        },
        "encounter": {
          "reference": "Encounter/ENC05367"
        }
      },
      "request": {
        "method": "PUT",
        "url": "Condition/COND08367"
      }
    },
    {
      "resource": {
        "resourceType": "Patient",
        "id": "TW00368",
        "identifier": [
          {
            "system": "http://www.moi.gov.tw/",
            "value": "TW00368"
          }
        ],
        "active": true,
        "name": [
          {
            "use": "official",
            "text": "測試病患00368"
          }
        ],
        "gender": "male",
        "birthDate": "1983-06-16"
      },
      "request": {
        "method": "PUT",
        "url": "Patient/TW00368"
      }
    },
    {
      "resource": {
        "resourceType": "Encounter",
        "id": "ENC05368",
        "status": "finished",
        "class": {
          "system": "http://terminology.hl7.org/CodeSystem/v3-ActCode",
          "code": "IMP",
          "display": "住院"
        },
        "subject": {
          "reference": "Patient/TW00368"
        },
        "period": {
          "start": "2025-10-25T13:18:00",
          "end": "2025-10-30T13:18:00"
        },
        "serviceProvider": {
          "reference": "Organization/HOSP001",
          "display": "測試醫院"
        }
      },
      "request": {
        "method": "PUT",
        "url": "Encounter/ENC05368"
      }
    },
    {
      "resource": {
        "resourceType": "Condition",
        "id": "COND08368",
        "clinicalStatus": {
          "coding": [
            {
              "system": "http://terminology.hl7.org/CodeSystem/condition-clinical",
              "code": "active"
            }
          ]
        },
        "verificationStatus": {
          "coding": [
            {
              "system": "http://terminology.hl7.org/CodeSystem/condition-ver-status",
              "code": "confirmed"
            }
          ]
        },
        "code": {
          "coding": [
            {
              "system": "http://hl7.org/fhir/sid/icd-10",
              "code": "E11.9",
              "display": "第二型糖尿病"
            }
          ]
        },
        "subject": {
          "reference": "Patient/TW00368"
        },
        "encounter": {
          "reference": "Encounter/ENC05368"
        }
      },
      "request": {
        "method": "PUT",
        "url": "Condition/COND08368"
      }
    },
    {
      "resource": {
        "resourceType": "Patient",
        "id": "TW00369",
        "identifier": [
          {
            "system": "http://www.moi.gov.tw/",
            "value": "TW00369"
          }
        ],
        "active": true,
        "name": [
          {
            "use": "official",
            "text": "測試病患00369"
          }
        ],
        "gender": "female",
        "birthDate": "1971-08-23"
      },
      "request": {
        "method": "PUT",
        "url": "Patient/TW00369"
      }
    },
    {
      "resource": {
        "resourceType": "Encounter",
        "id": "ENC05369",
        "status": "finished",
        "class": {
          "system": "http://terminology.hl7.org/CodeSystem/v3-ActCode",
          "code": "IMP",
          "display": "住院"
        },
        "subject": {
          "reference": "Patient/TW00369"
        },
        "period": {
          "start": "2025-11-22T19:56:00",
          "end": "2025-11-29T19:56:00"
        },
        "serviceProvider": {
          "reference": "Organization/HOSP001",
          "display": "測試醫院"
        }
      },
      "request": {
        "method": "PUT",
        "url": "Encounter/ENC05369"
      }
    },
    {
      "resource": {
        "resourceType": "Condition",
        "id": "COND08369",
        "clinicalStatus": {
          "coding": [
            {
              "system": "http://terminology.hl7.org/CodeSystem/condition-clinical",
              "code": "active"
            }
          ]
        },
        "verificationStatus": {
          "coding": [
            {
              "system": "http://terminology.hl7.org/CodeSystem/condition-ver-status",
              "code": "confirmed"
            }
          ]
        },
        "code": {
          "coding": [
            {
              "system": "http://hl7.org/fhir/sid/icd-10",
              "code": "N18.9",
              "display": "慢性腎臟病"
            }
          ]
        },
        "subject": {
          "reference": "Patient/TW00369"
        },
        "encounter": {
          "reference": "Encounter/ENC05369"
        }
      },
      "request": {
        "method": "PUT",
        "url": "Condition/COND08369"
      }
    },
    {
      "resource": {
        "resourceType": "Patient",
        "id": "TW00370",
        "identifier": [
          {
            "system": "http://www.moi.gov.tw/",
            "value": "TW00370"
          }
        ],
        "active": true,
        "name": [
          {
            "use": "official",
            "text": "測試病患00370"
          }
        ],
        "gender": "female",
        "birthDate": "1959-08-25"
      },
      "request": {
        "method": "PUT",
        "url": "Patient/TW00370"
      }
    },
    {
      "resource": {
        "resourceType": "Encounter",
        "id": "ENC05370",
        "status": "finished",
        "class": {
          "system": "http://terminology.hl7.org/CodeSystem/v3-ActCode",
          "code": "IMP",
          "display": "住院"
        },
        "subject": {
          "reference": "Patient/TW00370"
        },
        "period": {
          "start": "2025-12-20T19:40:00",
          "end": "2025-12-26T19:40:00"
        },
        "serviceProvider": {
          "reference": "Organization/HOSP001",
          "display": "測試醫院"
        }
      },
      "request": {
        "method": "PUT",
        "url": "Encounter/ENC05370"
      }
    },
    {
      "resource": {
        "resourceType": "Condition",
        "id": "COND08370",
        "clinicalStatus": {
          "coding": [
            {
              "system": "http://terminology.hl7.org/CodeSystem/condition-clinical",
              "code": "active"
            }
          ]
        },
        "verificationStatus": {
          "coding": [
            {
              "system": "http://terminology.hl7.org/CodeSystem/condition-ver-status",
              "code": "confirmed"
            }
          ]
        },
        "code": {
          "coding": [
            {
              "system": "http://hl7.org/fhir/sid/icd-10",
              "code": "N18.9",
              "display": "慢性腎臟病"
            }
          ]
        },
        "subject": {
          "reference": "Patient/TW00370"
        },
        "encounter": {
          "reference": "Encounter/ENC05370"
        }
      },
      "request": {
        "method": "PUT",
        "url": "Condition/COND08370"
      }
    },
    {
      "resource": {
        "resourceType": "Patient",
        "id": "TW00371",
        "identifier": [
          {
            "system": "http://www.moi.gov.tw/",
            "value": "TW00371"
          }
        ],
        "active": true,
        "name": [
          {
            "use": "official",
            "text": "測試病患00371"
          }
        ],
        "gender": "male",
        "birthDate": "1976-03-07"
      },
      "request": {
        "method": "PUT",
        "url": "Patient/TW00371"
      }
    },
    {
      "resource": {
        "resourceType": "Encounter",
        "id": "ENC05371",
        "status": "finished",
        "class": {
          "system": "http://terminology.hl7.org/CodeSystem/v3-ActCode",
          "code": "IMP",
          "display": "住院"
        },
        "subject": {
          "reference": "Patient/TW00371"
        },
        "period": {
          "start": "2025-12-09T14:53:00",
          "end": "2025-12-14T14:53:00"
        },
        "serviceProvider": {
          "reference": "Organization/HOSP001",
          "display": "測試醫院"
        }
      },
      "request": {
        "method": "PUT",
        "url": "Encounter/ENC05371"
      }
    },
    {
      "resource": {
        "resourceType": "Condition",
        "id": "COND08371",
        "clinicalStatus": {
          "coding": [
            {
              "system": "http://terminology.hl7.org/CodeSystem/condition-clinical",
              "code": "active"
            }
          ]
        },
        "verificationStatus": {
          "coding": [
            {
              "system": "http://terminology.hl7.org/CodeSystem/condition-ver-status",
              "code": "confirmed"
            }
          ]
        },
        "code": {
          "coding": [
            {
              "system": "http://hl7.org/fhir/sid/icd-10",
              "code": "E11.9",
              "display": "第二型糖尿病"
            }
          ]
        },
        "subject": {
          "reference": "Patient/TW00371"
        },
        "encounter": {
          "reference": "Encounter/ENC05371"
        }
      },
      "request": {
        "method": "PUT",
        "url": "Condition/COND08371"
      }
    },
    {
      "resource": {
        "resourceType": "Patient",
        "id": "TW00372",
        "identifier": [
          {
            "system": "http://www.moi.gov.tw/",
            "value": "TW00372"
          }
        ],
        "active": true,
        "name": [
          {
            "use": "official",
            "text": "測試病患00372"
          }
        ],
        "gender": "female",
        "birthDate": "1953-08-11"
      },
      "request": {
        "method": "PUT",
        "url": "Patient/TW00372"
      }
    },
    {
      "resource": {
        "resourceType": "Encounter",
        "id": "ENC05372",
        "status": "finished",
        "class": {
          "system": "http://terminology.hl7.org/CodeSystem/v3-ActCode",
          "code": "IMP",
          "display": "住院"
        },
        "subject": {
          "reference": "Patient/TW00372"
        },
        "period": {
          "start": "2025-12-05T15:46:00",
          "end": "2025-12-12T15:46:00"
        },
        "serviceProvider": {
          "reference": "Organization/HOSP001",
          "display": "測試醫院"
        }
      },
      "request": {
        "method": "PUT",
        "url": "Encounter/ENC05372"
      }
    },
    {
      "resource": {
        "resourceType": "Condition",
        "id": "COND08372",
        "clinicalStatus": {
          "coding": [
            {
              "system": "http://terminology.hl7.org/CodeSystem/condition-clinical",
              "code": "active"
            }
          ]
        },
        "verificationStatus": {
          "coding": [
            {
              "system": "http://terminology.hl7.org/CodeSystem/condition-ver-status",
              "code": "confirmed"
            }
          ]
        },
        "code": {
          "coding": [
            {
              "system": "http://hl7.org/fhir/sid/icd-10",
              "code": "I21.9",
              "display": "急性心肌梗塞"
            }
          ]
        },
        "subject": {
          "reference": "Patient/TW00372"
        },
        "encounter": {
          "reference": "Encounter/ENC05372"
        }
      },
      "request": {
        "method": "PUT",
        "url": "Condition/COND08372"
      }
    },
    {
      "resource": {
        "resourceType": "Encounter",
        "id": "ENC05373",
        "status": "finished",
        "class": {
          "system": "http://terminology.hl7.org/CodeSystem/v3-ActCode",
          "code": "IMP",
          "display": "住院"
        },
        "subject": {
          "reference": "Patient/TW00372"
        },
        "period": {
          "start": "2025-12-25T15:46:00",
          "end": "2025-12-29T15:46:00"
        },
        "serviceProvider": {
          "reference": "Organization/HOSP001",
          "display": "測試醫院"
        }
      },
      "request": {
        "method": "PUT",
        "url": "Encounter/ENC05373"
      }
    },
    {
      "resource": {
        "resourceType": "Condition",
        "id": "COND08373",
        "clinicalStatus": {
          "coding": [
            {
              "system": "http://terminology.hl7.org/CodeSystem/condition-clinical",
              "code": "active"
            }
          ]
        },
        "verificationStatus": {
          "coding": [
            {
              "system": "http://terminology.hl7.org/CodeSystem/condition-ver-status",
              "code": "confirmed"
            }
          ]
        },
        "code": {
          "coding": [
            {
              "system": "http://hl7.org/fhir/sid/icd-10",
              "code": "I50.9",
              "display": "心臟衰竭"
            }
          ]
        },
        "subject": {
          "reference": "Patient/TW00372"
        },
        "encounter": {
          "reference": "Encounter/ENC05373"
        }
      },
      "request": {
        "method": "PUT",
        "url": "Condition/COND08373"
      }
    },
    {
      "resource": {
        "resourceType": "Patient",
        "id": "TW00373",
        "identifier": [
          {
            "system": "http://www.moi.gov.tw/",
            "value": "TW00373"
          }
        ],
        "active": true,
        "name": [
          {
            "use": "official",
            "text": "測試病患00373"
          }
        ],
        "gender": "female",
        "birthDate": "1971-01-18"
      },
      "request": {
        "method": "PUT",
        "url": "Patient/TW00373"
      }
    },
    {
      "resource": {
        "resourceType": "Encounter",
        "id": "ENC05374",
        "status": "finished",
        "class": {
          "system": "http://terminology.hl7.org/CodeSystem/v3-ActCode",
          "code": "IMP",
          "display": "住院"
        },
        "subject": {
          "reference": "Patient/TW00373"
        },
        "period": {
          "start": "2025-10-02T13:06:00",
          "end": "2025-10-08T13:06:00"
        },
        "serviceProvider": {
          "reference": "Organization/HOSP001",
          "display": "測試醫院"
        }
      },
      "request": {
        "method": "PUT",
        "url": "Encounter/ENC05374"
      }
    },
    {
      "resource": {
        "resourceType": "Condition",
        "id": "COND08374",
        "clinicalStatus": {
          "coding": [
            {
              "system": "http://terminology.hl7.org/CodeSystem/condition-clinical",
              "code": "active"
            }
          ]
        },
        "verificationStatus": {
          "coding": [
            {
              "system": "http://terminology.hl7.org/CodeSystem/condition-ver-status",
              "code": "confirmed"
            }
          ]
        },
        "code": {
          "coding": [
            {
              "system": "http://hl7.org/fhir/sid/icd-10",
              "code": "I21.9",
              "display": "急性心肌梗塞"
            }
          ]
        },
        "subject": {
          "reference": "Patient/TW00373"
        },
        "encounter": {
          "reference": "Encounter/ENC05374"
        }
      },
      "request": {
        "method": "PUT",
        "url": "Condition/COND08374"
      }
    },
    {
      "resource": {
        "resourceType": "Encounter",
        "id": "ENC05375",
        "status": "finished",
        "class": {
          "system": "http://terminology.hl7.org/CodeSystem/v3-ActCode",
          "code": "IMP",
          "display": "住院"
        },
        "subject": {
          "reference": "Patient/TW00373"
        },
        "period": {
          "start": "2025-10-12T13:06:00",
          "end": "2025-10-16T13:06:00"
        },
        "serviceProvider": {
          "reference": "Organization/HOSP001",
          "display": "測試醫院"
        }
      },
      "request": {
        "method": "PUT",
        "url": "Encounter/ENC05375"
      }
    },
    {
      "resource": {
        "resourceType": "Condition",
        "id": "COND08375",
        "clinicalStatus": {
          "coding": [
            {
              "system": "http://terminology.hl7.org/CodeSystem/condition-clinical",
              "code": "active"
            }
          ]
        },
        "verificationStatus": {
          "coding": [
            {
              "system": "http://terminology.hl7.org/CodeSystem/condition-ver-status",
              "code": "confirmed"
            }
          ]
        },
        "code": {
          "coding": [
            {
              "system": "http://hl7.org/fhir/sid/icd-10",
              "code": "I50.9",
              "display": "心臟衰竭"
            }
          ]
        },
        "subject": {
          "reference": "Patient/TW00373"
        },
        "encounter": {
          "reference": "Encounter/ENC05375"
        }
      },
      "request": {
        "method": "PUT",
        "url": "Condition/COND08375"
      }
    },
    {
      "resource": {
        "resourceType": "Patient",
        "id": "TW00374",
        "identifier": [
          {
            "system": "http://www.moi.gov.tw/",
            "value": "TW00374"
          }
        ],
        "active": true,
        "name": [
          {
            "use": "official",
            "text": "測試病患00374"
          }
        ],
        "gender": "male",
        "birthDate": "1955-05-02"
      },
      "request": {
        "method": "PUT",
        "url": "Patient/TW00374"
      }
    },
    {
      "resource": {
        "resourceType": "Encounter",
        "id": "ENC05376",
        "status": "finished",
        "class": {
          "system": "http://terminology.hl7.org/CodeSystem/v3-ActCode",
          "code": "IMP",
          "display": "住院"
        },
        "subject": {
          "reference": "Patient/TW00374"
        },
        "period": {
          "start": "2025-11-14T19:27:00",
          "end": "2025-11-21T19:27:00"
        },
        "serviceProvider": {
          "reference": "Organization/HOSP001",
          "display": "測試醫院"
        }
      },
      "request": {
        "method": "PUT",
        "url": "Encounter/ENC05376"
      }
    },
    {
      "resource": {
        "resourceType": "Condition",
        "id": "COND08376",
        "clinicalStatus": {
          "coding": [
            {
              "system": "http://terminology.hl7.org/CodeSystem/condition-clinical",
              "code": "active"
            }
          ]
        },
        "verificationStatus": {
          "coding": [
            {
              "system": "http://terminology.hl7.org/CodeSystem/condition-ver-status",
              "code": "confirmed"
            }
          ]
        },
        "code": {
          "coding": [
            {
              "system": "http://hl7.org/fhir/sid/icd-10",
              "code": "I21.9",
              "display": "急性心肌梗塞"
            }
          ]
        },
        "subject": {
          "reference": "Patient/TW00374"
        },
        "encounter": {
          "reference": "Encounter/ENC05376"
        }
      },
      "request": {
        "method": "PUT",
        "url": "Condition/COND08376"
      }
    },
    {
      "resource": {
        "resourceType": "Encounter",
        "id": "ENC05377",
        "status": "finished",
        "class": {
          "system": "http://terminology.hl7.org/CodeSystem/v3-ActCode",
          "code": "IMP",
          "display": "住院"
        },
        "subject": {
          "reference": "Patient/TW00374"
        },
        "period": {
          "start": "2025-11-25T19:27:00",
          "end": "2025-11-29T19:27:00"
        },
        "serviceProvider": {
          "reference": "Organization/HOSP001",
          "display": "測試醫院"
        }
      },
      "request": {
        "method": "PUT",
        "url": "Encounter/ENC05377"
      }
    },
    {
      "resource": {
        "resourceType": "Condition",
        "id": "COND08377",
        "clinicalStatus": {
          "coding": [
            {
              "system": "http://terminology.hl7.org/CodeSystem/condition-clinical",
              "code": "active"
            }
          ]
        },
        "verificationStatus": {
          "coding": [
            {
              "system": "http://terminology.hl7.org/CodeSystem/condition-ver-status",
              "code": "confirmed"
            }
          ]
        },
        "code": {
          "coding": [
            {
              "system": "http://hl7.org/fhir/sid/icd-10",
              "code": "I50.9",
              "display": "心臟衰竭"
            }
          ]
        },
        "subject": {
          "reference": "Patient/TW00374"
        },
        "encounter": {
          "reference": "Encounter/ENC05377"
        }
      },
      "request": {
        "method": "PUT",
        "url": "Condition/COND08377"
      }
    },
    {
      "resource": {
        "resourceType": "Patient",
        "id": "TW00375",
        "identifier": [
          {
            "system": "http://www.moi.gov.tw/",
            "value": "TW00375"
          }
        ],
        "active": true,
        "name": [
          {
            "use": "official",
            "text": "測試病患00375"
          }
        ],
        "gender": "male",
        "birthDate": "1986-11-22"
      },
      "request": {
        "method": "PUT",
        "url": "Patient/TW00375"
      }
    },
    {
      "resource": {
        "resourceType": "Encounter",
        "id": "ENC05378",
        "status": "finished",
        "class": {
          "system": "http://terminology.hl7.org/CodeSystem/v3-ActCode",
          "code": "IMP",
          "display": "住院"
        },
        "subject": {
          "reference": "Patient/TW00375"
        },
        "period": {
          "start": "2025-12-02T18:20:00",
          "end": "2025-12-09T18:20:00"
        },
        "serviceProvider": {
          "reference": "Organization/HOSP001",
          "display": "測試醫院"
        }
      },
      "request": {
        "method": "PUT",
        "url": "Encounter/ENC05378"
      }
    },
    {
      "resource": {
        "resourceType": "Condition",
        "id": "COND08378",
        "clinicalStatus": {
          "coding": [
            {
              "system": "http://terminology.hl7.org/CodeSystem/condition-clinical",
              "code": "active"
            }
          ]
        },
        "verificationStatus": {
          "coding": [
            {
              "system": "http://terminology.hl7.org/CodeSystem/condition-ver-status",
              "code": "confirmed"
            }
          ]
        },
        "code": {
          "coding": [
            {
              "system": "http://hl7.org/fhir/sid/icd-10",
              "code": "I21.9",
              "display": "急性心肌梗塞"
            }
          ]
        },
        "subject": {
          "reference": "Patient/TW00375"
        },
        "encounter": {
          "reference": "Encounter/ENC05378"
        }
      },
      "request": {
        "method": "PUT",
        "url": "Condition/COND08378"
      }
    },
    {
      "resource": {
        "resourceType": "Encounter",
        "id": "ENC05379",
        "status": "finished",
        "class": {
          "system": "http://terminology.hl7.org/CodeSystem/v3-ActCode",
          "code": "IMP",
          "display": "住院"
        },
        "subject": {
          "reference": "Patient/TW00375"
        },
        "period": {
          "start": "2025-12-14T18:20:00",
          "end": "2025-12-19T18:20:00"
        },
        "serviceProvider": {
          "reference": "Organization/HOSP001",
          "display": "測試醫院"
        }
      },
      "request": {
        "method": "PUT",
        "url": "Encounter/ENC05379"
      }
    },
    {
      "resource": {
        "resourceType": "Condition",
        "id": "COND08379",
        "clinicalStatus": {
          "coding": [
            {
              "system": "http://terminology.hl7.org/CodeSystem/condition-clinical",
              "code": "active"
            }
          ]
        },
        "verificationStatus": {
          "coding": [
            {
              "system": "http://terminology.hl7.org/CodeSystem/condition-ver-status",
              "code": "confirmed"
            }
          ]
        },
        "code": {
          "coding": [
            {
              "system": "http://hl7.org/fhir/sid/icd-10",
              "code": "I50.9",
              "display": "心臟衰竭"
            }
          ]
        },
        "subject": {
          "reference": "Patient/TW00375"
        },
        "encounter": {
          "reference": "Encounter/ENC05379"
        }
      },
      "request": {
        "method": "PUT",
        "url": "Condition/COND08379"
      }
    },
    {
      "resource": {
        "resourceType": "Patient",
        "id": "TW00376",
        "identifier": [
          {
            "system": "http://www.moi.gov.tw/",
            "value": "TW00376"
          }
        ],
        "active": true,
        "name": [
          {
            "use": "official",
            "text": "測試病患00376"
          }
        ],
        "gender": "male",
        "birthDate": "1989-08-26"
      },
      "request": {
        "method": "PUT",
        "url": "Patient/TW00376"
      }
    },
    {
      "resource": {
        "resourceType": "Encounter",
        "id": "ENC05380",
        "status": "finished",
        "class": {
          "system": "http://terminology.hl7.org/CodeSystem/v3-ActCode",
          "code": "IMP",
          "display": "住院"
        },
        "subject": {
          "reference": "Patient/TW00376"
        },
        "period": {
          "start": "2025-10-28T10:57:00",
          "end": "2025-11-03T10:57:00"
        },
        "serviceProvider": {
          "reference": "Organization/HOSP001",
          "display": "測試醫院"
        }
      },
      "request": {
        "method": "PUT",
        "url": "Encounter/ENC05380"
      }
    },
    {
      "resource": {
        "resourceType": "Condition",
        "id": "COND08380",
        "clinicalStatus": {
          "coding": [
            {
              "system": "http://terminology.hl7.org/CodeSystem/condition-clinical",
              "code": "active"
            }
          ]
        },
        "verificationStatus": {
          "coding": [
            {
              "system": "http://terminology.hl7.org/CodeSystem/condition-ver-status",
              "code": "confirmed"
            }
          ]
        },
        "code": {
          "coding": [
            {
              "system": "http://hl7.org/fhir/sid/icd-10",
              "code": "I21.9",
              "display": "急性心肌梗塞"
            }
          ]
        },
        "subject": {
          "reference": "Patient/TW00376"
        },
        "encounter": {
          "reference": "Encounter/ENC05380"
        }
      },
      "request": {
        "method": "PUT",
        "url": "Condition/COND08380"
      }
    },
    {
      "resource": {
        "resourceType": "Encounter",
        "id": "ENC05381",
        "status": "finished",
        "class": {
          "system": "http://terminology.hl7.org/CodeSystem/v3-ActCode",
          "code": "IMP",
          "display": "住院"
        },
        "subject": {
          "reference": "Patient/TW00376"
        },
        "period": {
          "start": "2025-11-15T10:57:00",
          "end": "2025-11-20T10:57:00"
        },
        "serviceProvider": {
          "reference": "Organization/HOSP001",
          "display": "測試醫院"
        }
      },
      "request": {
        "method": "PUT",
        "url": "Encounter/ENC05381"
      }
    },
    {
      "resource": {
        "resourceType": "Condition",
        "id": "COND08381",
        "clinicalStatus": {
          "coding": [
            {
              "system": "http://terminology.hl7.org/CodeSystem/condition-clinical",
              "code": "active"
            }
          ]
        },
        "verificationStatus": {
          "coding": [
            {
              "system": "http://terminology.hl7.org/CodeSystem/condition-ver-status",
              "code": "confirmed"
            }
          ]
        },
        "code": {
          "coding": [
            {
              "system": "http://hl7.org/fhir/sid/icd-10",
              "code": "I50.9",
              "display": "心臟衰竭"
            }
          ]
        },
        "subject": {
          "reference": "Patient/TW00376"
        },
        "encounter": {
          "reference": "Encounter/ENC05381"
        }
      },
      "request": {
        "method": "PUT",
        "url": "Condition/COND08381"
      }
    },
    {
      "resource": {
        "resourceType": "Patient",
        "id": "TW00377",
        "identifier": [
          {
            "system": "http://www.moi.gov.tw/",
            "value": "TW00377"
          }
        ],
        "active": true,
        "name": [
          {
            "use": "official",
            "text": "測試病患00377"
          }
        ],
        "gender": "female",
        "birthDate": "1970-08-24"
      },
      "request": {
        "method": "PUT",
        "url": "Patient/TW00377"
      }
    },
    {
      "resource": {
        "resourceType": "Encounter",
        "id": "ENC05382",
        "status": "finished",
        "class": {
          "system": "http://terminology.hl7.org/CodeSystem/v3-ActCode",
          "code": "IMP",
          "display": "住院"
        },
        "subject": {
          "reference": "Patient/TW00377"
        },
        "period": {
          "start": "2025-10-09T11:16:00",
          "end": "2025-10-15T11:16:00"
        },
        "serviceProvider": {
          "reference": "Organization/HOSP001",
          "display": "測試醫院"
        }
      },
      "request": {
        "method": "PUT",
        "url": "Encounter/ENC05382"
      }
    },
    {
      "resource": {
        "resourceType": "Condition",
        "id": "COND08382",
        "clinicalStatus": {
          "coding": [
            {
              "system": "http://terminology.hl7.org/CodeSystem/condition-clinical",
              "code": "active"
            }
          ]
        },
        "verificationStatus": {
          "coding": [
            {
              "system": "http://terminology.hl7.org/CodeSystem/condition-ver-status",
              "code": "confirmed"
            }
          ]
        },
        "code": {
          "coding": [
            {
              "system": "http://hl7.org/fhir/sid/icd-10",
              "code": "J18.9",
              "display": "肺炎"
            }
          ]
        },
        "subject": {
          "reference": "Patient/TW00377"
        },
        "encounter": {
          "reference": "Encounter/ENC05382"
        }
      },
      "request": {
        "method": "PUT",
        "url": "Condition/COND08382"
      }
    },
    {
      "resource": {
        "resourceType": "Encounter",
        "id": "ENC05383",
        "status": "finished",
        "class": {
          "system": "http://terminology.hl7.org/CodeSystem/v3-ActCode",
          "code": "EMER",
          "display": "急診"
        },
        "subject": {
          "reference": "Patient/TW00377"
        },
        "period": {
          "start": "2025-10-18T13:16:00",
          "end": "2025-10-18T17:16:00"
        },
        "serviceProvider": {
          "reference": "Organization/HOSP001",
          "display": "測試醫院"
        }
      },
      "request": {
        "method": "PUT",
        "url": "Encounter/ENC05383"
      }
    },
    {
      "resource": {
        "resourceType": "Condition",
        "id": "COND08383",
        "clinicalStatus": {
          "coding": [
            {
              "system": "http://terminology.hl7.org/CodeSystem/condition-clinical",
              "code": "active"
            }
          ]
        },
        "verificationStatus": {
          "coding": [
            {
              "system": "http://terminology.hl7.org/CodeSystem/condition-ver-status",
              "code": "confirmed"
            }
          ]
        },
        "code": {
          "coding": [
            {
              "system": "http://hl7.org/fhir/sid/icd-10",
              "code": "R50.9",
              "display": "發燒"
            }
          ]
        },
        "subject": {
          "reference": "Patient/TW00377"
        },
        "encounter": {
          "reference": "Encounter/ENC05383"
        }
      },
      "request": {
        "method": "PUT",
        "url": "Condition/COND08383"
      }
    },
    {
      "resource": {
        "resourceType": "Patient",
        "id": "TW00378",
        "identifier": [
          {
            "system": "http://www.moi.gov.tw/",
            "value": "TW00378"
          }
        ],
        "active": true,
        "name": [
          {
            "use": "official",
            "text": "測試病患00378"
          }
        ],
        "gender": "female",
        "birthDate": "1994-08-04"
      },
      "request": {
        "method": "PUT",
        "url": "Patient/TW00378"
      }
    },
    {
      "resource": {
        "resourceType": "Encounter",
        "id": "ENC05384",
        "status": "finished",
        "class": {
          "system": "http://terminology.hl7.org/CodeSystem/v3-ActCode",
          "code": "IMP",
          "display": "住院"
        },
        "subject": {
          "reference": "Patient/TW00378"
        },
        "period": {
          "start": "2025-11-07T16:06:00",
          "end": "2025-11-12T16:06:00"
        },
        "serviceProvider": {
          "reference": "Organization/HOSP001",
          "display": "測試醫院"
        }
      },
      "request": {
        "method": "PUT",
        "url": "Encounter/ENC05384"
      }
    },
    {
      "resource": {
        "resourceType": "Condition",
        "id": "COND08384",
        "clinicalStatus": {
          "coding": [
            {
              "system": "http://terminology.hl7.org/CodeSystem/condition-clinical",
              "code": "active"
            }
          ]
        },
        "verificationStatus": {
          "coding": [
            {
              "system": "http://terminology.hl7.org/CodeSystem/condition-ver-status",
              "code": "confirmed"
            }
          ]
        },
        "code": {
          "coding": [
            {
              "system": "http://hl7.org/fhir/sid/icd-10",
              "code": "J18.9",
              "display": "肺炎"
            }
          ]
        },
        "subject": {
          "reference": "Patient/TW00378"
        },
        "encounter": {
          "reference": "Encounter/ENC05384"
        }
      },
      "request": {
        "method": "PUT",
        "url": "Condition/COND08384"
      }
    },
    {
      "resource": {
        "resourceType": "Encounter",
        "id": "ENC05385",
        "status": "finished",
        "class": {
          "system": "http://terminology.hl7.org/CodeSystem/v3-ActCode",
          "code": "EMER",
          "display": "急診"
        },
        "subject": {
          "reference": "Patient/TW00378"
        },
        "period": {
          "start": "2025-11-14T23:06:00",
          "end": "2025-11-15T03:06:00"
        },
        "serviceProvider": {
          "reference": "Organization/HOSP001",
          "display": "測試醫院"
        }
      },
      "request": {
        "method": "PUT",
        "url": "Encounter/ENC05385"
      }
    },
    {
      "resource": {
        "resourceType": "Condition",
        "id": "COND08385",
        "clinicalStatus": {
          "coding": [
            {
              "system": "http://terminology.hl7.org/CodeSystem/condition-clinical",
              "code": "active"
            }
          ]
        },
        "verificationStatus": {
          "coding": [
            {
              "system": "http://terminology.hl7.org/CodeSystem/condition-ver-status",
              "code": "confirmed"
            }
          ]
        },
        "code": {
          "coding": [
            {
              "system": "http://hl7.org/fhir/sid/icd-10",
              "code": "R50.9",
              "display": "發燒"
            }
          ]
        },
        "subject": {
          "reference": "Patient/TW00378"
        },
        "encounter": {
          "reference": "Encounter/ENC05385"
        }
      },
      "request": {
        "method": "PUT",
        "url": "Condition/COND08385"
      }
    },
    {
      "resource": {
        "resourceType": "Patient",
        "id": "TW00379",
        "identifier": [
          {
            "system": "http://www.moi.gov.tw/",
            "value": "TW00379"
          }
        ],
        "active": true,
        "name": [
          {
            "use": "official",
            "text": "測試病患00379"
          }
        ],
        "gender": "female",
        "birthDate": "1980-02-23"
      },
      "request": {
        "method": "PUT",
        "url": "Patient/TW00379"
      }
    },
    {
      "resource": {
        "resourceType": "Encounter",
        "id": "ENC05386",
        "status": "finished",
        "class": {
          "system": "http://terminology.hl7.org/CodeSystem/v3-ActCode",
          "code": "IMP",
          "display": "住院"
        },
        "subject": {
          "reference": "Patient/TW00379"
        },
        "period": {
          "start": "2025-11-15T11:03:00",
          "end": "2025-11-22T11:03:00"
        },
        "serviceProvider": {
          "reference": "Organization/HOSP001",
          "display": "測試醫院"
        }
      },
      "request": {
        "method": "PUT",
        "url": "Encounter/ENC05386"
      }
    },
    {
      "resource": {
        "resourceType": "Condition",
        "id": "COND08386",
        "clinicalStatus": {
          "coding": [
            {
              "system": "http://terminology.hl7.org/CodeSystem/condition-clinical",
              "code": "active"
            }
          ]
        },
        "verificationStatus": {
          "coding": [
            {
              "system": "http://terminology.hl7.org/CodeSystem/condition-ver-status",
              "code": "confirmed"
            }
          ]
        },
        "code": {
          "coding": [
            {
              "system": "http://hl7.org/fhir/sid/icd-10",
              "code": "J18.9",
              "display": "肺炎"
            }
          ]
        },
        "subject": {
          "reference": "Patient/TW00379"
        },
        "encounter": {
          "reference": "Encounter/ENC05386"
        }
      },
      "request": {
        "method": "PUT",
        "url": "Condition/COND08386"
      }
    },
    {
      "resource": {
        "resourceType": "Encounter",
        "id": "ENC05387",
        "status": "finished",
        "class": {
          "system": "http://terminology.hl7.org/CodeSystem/v3-ActCode",
          "code": "EMER",
          "display": "急診"
        },
        "subject": {
          "reference": "Patient/TW00379"
        },
        "period": {
          "start": "2025-11-24T00:03:00",
          "end": "2025-11-24T07:03:00"
        },
        "serviceProvider": {
          "reference": "Organization/HOSP001",
          "display": "測試醫院"
        }
      },
      "request": {
        "method": "PUT",
        "url": "Encounter/ENC05387"
      }
    },
    {
      "resource": {
        "resourceType": "Condition",
        "id": "COND08387",
        "clinicalStatus": {
          "coding": [
            {
              "system": "http://terminology.hl7.org/CodeSystem/condition-clinical",
              "code": "active"
            }
          ]
        },
        "verificationStatus": {
          "coding": [
            {
              "system": "http://terminology.hl7.org/CodeSystem/condition-ver-status",
              "code": "confirmed"
            }
          ]
        },
        "code": {
          "coding": [
            {
              "system": "http://hl7.org/fhir/sid/icd-10",
              "code": "R50.9",
              "display": "發燒"
            }
          ]
        },
        "subject": {
          "reference": "Patient/TW00379"
        },
        "encounter": {
          "reference": "Encounter/ENC05387"
        }
      },
      "request": {
        "method": "PUT",
        "url": "Condition/COND08387"
      }
    },
    {
      "resource": {
        "resourceType": "Patient",
        "id": "TW00380",
        "identifier": [
          {
            "system": "http://www.moi.gov.tw/",
            "value": "TW00380"
          }
        ],
        "active": true,
        "name": [
          {
            "use": "official",
            "text": "測試病患00380"
          }
        ],
        "gender": "female",
        "birthDate": "1991-09-20"
      },
      "request": {
        "method": "PUT",
        "url": "Patient/TW00380"
      }
    },
    {
      "resource": {
        "resourceType": "Encounter",
        "id": "ENC05388",
        "status": "finished",
        "class": {
          "system": "http://terminology.hl7.org/CodeSystem/v3-ActCode",
          "code": "IMP",
          "display": "住院"
        },
        "subject": {
          "reference": "Patient/TW00380"
        },
        "period": {
          "start": "2025-11-10T09:29:00",
          "end": "2025-11-13T09:29:00"
        },
        "serviceProvider": {
          "reference": "Organization/HOSP001",
          "display": "測試醫院"
        }
      },
      "request": {
        "method": "PUT",
        "url": "Encounter/ENC05388"
      }
    },
    {
      "resource": {
        "resourceType": "Condition",
        "id": "COND08388",
        "clinicalStatus": {
          "coding": [
            {
              "system": "http://terminology.hl7.org/CodeSystem/condition-clinical",
              "code": "active"
            }
          ]
        },
        "verificationStatus": {
          "coding": [
            {
              "system": "http://terminology.hl7.org/CodeSystem/condition-ver-status",
              "code": "confirmed"
            }
          ]
        },
        "code": {
          "coding": [
            {
              "system": "http://hl7.org/fhir/sid/icd-10",
              "code": "O80",
              "display": "自然單胎分娩"
            }
          ]
        },
        "subject": {
          "reference": "Patient/TW00380"
        },
        "encounter": {
          "reference": "Encounter/ENC05388"
        }
      },
      "request": {
        "method": "PUT",
        "url": "Condition/COND08388"
      }
    },
    {
      "resource": {
        "resourceType": "Patient",
        "id": "TW00381",
        "identifier": [
          {
            "system": "http://www.moi.gov.tw/",
            "value": "TW00381"
          }
        ],
        "active": true,
        "name": [
          {
            "use": "official",
            "text": "測試病患00381"
          }
        ],
        "gender": "female",
        "birthDate": "1996-09-11"
      },
      "request": {
        "method": "PUT",
        "url": "Patient/TW00381"
      }
    },
    {
      "resource": {
        "resourceType": "Encounter",
        "id": "ENC05389",
        "status": "finished",
        "class": {
          "system": "http://terminology.hl7.org/CodeSystem/v3-ActCode",
          "code": "IMP",
          "display": "住院"
        },
        "subject": {
          "reference": "Patient/TW00381"
        },
        "period": {
          "start": "2025-11-10T20:36:00",
          "end": "2025-11-13T20:36:00"
        },
        "serviceProvider": {
          "reference": "Organization/HOSP001",
          "display": "測試醫院"
        }
      },
      "request": {
        "method": "PUT",
        "url": "Encounter/ENC05389"
      }
    },
    {
      "resource": {
        "resourceType": "Condition",
        "id": "COND08389",
        "clinicalStatus": {
          "coding": [
            {
              "system": "http://terminology.hl7.org/CodeSystem/condition-clinical",
              "code": "active"
            }
          ]
        },
        "verificationStatus": {
          "coding": [
            {
              "system": "http://terminology.hl7.org/CodeSystem/condition-ver-status",
              "code": "confirmed"
            }
          ]
        },
        "code": {
          "coding": [
            {
              "system": "http://hl7.org/fhir/sid/icd-10",
              "code": "O80",
              "display": "自然單胎分娩"
            }
          ]
        },
        "subject": {
          "reference": "Patient/TW00381"
        },
        "encounter": {
          "reference": "Encounter/ENC05389"
        }
      },
      "request": {
        "method": "PUT",
        "url": "Condition/COND08389"
      }
    },
    {
      "resource": {
        "resourceType": "Patient",
        "id": "TW00382",
        "identifier": [
          {
            "system": "http://www.moi.gov.tw/",
            "value": "TW00382"
          }
        ],
        "active": true,
        "name": [
          {
            "use": "official",
            "text": "測試病患00382"
          }
        ],
        "gender": "female",
        "birthDate": "1992-06-21"
      },
      "request": {
        "method": "PUT",
        "url": "Patient/TW00382"
      }
    },
    {
      "resource": {
        "resourceType": "Encounter",
        "id": "ENC05390",
        "status": "finished",
        "class": {
          "system": "http://terminology.hl7.org/CodeSystem/v3-ActCode",
          "code": "IMP",
          "display": "住院"
        },
        "subject": {
          "reference": "Patient/TW00382"
        },
        "period": {
          "start": "2025-11-04T11:33:00",
          "end": "2025-11-07T11:33:00"
        },
        "serviceProvider": {
          "reference": "Organization/HOSP001",
          "display": "測試醫院"
        }
      },
      "request": {
        "method": "PUT",
        "url": "Encounter/ENC05390"
      }
    },
    {
      "resource": {
        "resourceType": "Condition",
        "id": "COND08390",
        "clinicalStatus": {
          "coding": [
            {
              "system": "http://terminology.hl7.org/CodeSystem/condition-clinical",
              "code": "active"
            }
          ]
        },
        "verificationStatus": {
          "coding": [
            {
              "system": "http://terminology.hl7.org/CodeSystem/condition-ver-status",
              "code": "confirmed"
            }
          ]
        },
        "code": {
          "coding": [
            {
              "system": "http://hl7.org/fhir/sid/icd-10",
              "code": "O80",
              "display": "自然單胎分娩"
            }
          ]
        },
        "subject": {
          "reference": "Patient/TW00382"
        },
        "encounter": {
          "reference": "Encounter/ENC05390"
        }
      },
      "request": {
        "method": "PUT",
        "url": "Condition/COND08390"
      }
    },
    {
      "resource": {
        "resourceType": "Patient",
        "id": "TW00383",
        "identifier": [
          {
            "system": "http://www.moi.gov.tw/",
            "value": "TW00383"
          }
        ],
        "active": true,
        "name": [
          {
            "use": "official",
            "text": "測試病患00383"
          }
        ],
        "gender": "female",
        "birthDate": "1998-07-27"
      },
      "request": {
        "method": "PUT",
        "url": "Patient/TW00383"
      }
    },
    {
      "resource": {
        "resourceType": "Encounter",
        "id": "ENC05391",
        "status": "finished",
        "class": {
          "system": "http://terminology.hl7.org/CodeSystem/v3-ActCode",
          "code": "IMP",
          "display": "住院"
        },
        "subject": {
          "reference": "Patient/TW00383"
        },
        "period": {
          "start": "2025-10-14T08:24:00",
          "end": "2025-10-17T08:24:00"
        },
        "serviceProvider": {
          "reference": "Organization/HOSP001",
          "display": "測試醫院"
        }
      },
      "request": {
        "method": "PUT",
        "url": "Encounter/ENC05391"
      }
    },
    {
      "resource": {
        "resourceType": "Condition",
        "id": "COND08391",
        "clinicalStatus": {
          "coding": [
            {
              "system": "http://terminology.hl7.org/CodeSystem/condition-clinical",
              "code": "active"
            }
          ]
        },
        "verificationStatus": {
          "coding": [
            {
              "system": "http://terminology.hl7.org/CodeSystem/condition-ver-status",
              "code": "confirmed"
            }
          ]
        },
        "code": {
          "coding": [
            {
              "system": "http://hl7.org/fhir/sid/icd-10",
              "code": "O80",
              "display": "自然單胎分娩"
            }
          ]
        },
        "subject": {
          "reference": "Patient/TW00383"
        },
        "encounter": {
          "reference": "Encounter/ENC05391"
        }
      },
      "request": {
        "method": "PUT",
        "url": "Condition/COND08391"
      }
    },
    {
      "resource": {
        "resourceType": "Patient",
        "id": "TW00384",
        "identifier": [
          {
            "system": "http://www.moi.gov.tw/",
            "value": "TW00384"
          }
        ],
        "active": true,
        "name": [
          {
            "use": "official",
            "text": "測試病患00384"
          }
        ],
        "gender": "female",
        "birthDate": "1998-03-20"
      },
      "request": {
        "method": "PUT",
        "url": "Patient/TW00384"
      }
    },
    {
      "resource": {
        "resourceType": "Encounter",
        "id": "ENC05392",
        "status": "finished",
        "class": {
          "system": "http://terminology.hl7.org/CodeSystem/v3-ActCode",
          "code": "IMP",
          "display": "住院"
        },
        "subject": {
          "reference": "Patient/TW00384"
        },
        "period": {
          "start": "2025-11-16T13:07:00",
          "end": "2025-11-18T13:07:00"
        },
        "serviceProvider": {
          "reference": "Organization/HOSP001",
          "display": "測試醫院"
        }
      },
      "request": {
        "method": "PUT",
        "url": "Encounter/ENC05392"
      }
    },
    {
      "resource": {
        "resourceType": "Condition",
        "id": "COND08392",
        "clinicalStatus": {
          "coding": [
            {
              "system": "http://terminology.hl7.org/CodeSystem/condition-clinical",
              "code": "active"
            }
          ]
        },
        "verificationStatus": {
          "coding": [
            {
              "system": "http://terminology.hl7.org/CodeSystem/condition-ver-status",
              "code": "confirmed"
            }
          ]
        },
        "code": {
          "coding": [
            {
              "system": "http://hl7.org/fhir/sid/icd-10",
              "code": "O80",
              "display": "自然單胎分娩"
            }
          ]
        },
        "subject": {
          "reference": "Patient/TW00384"
        },
        "encounter": {
          "reference": "Encounter/ENC05392"
        }
      },
      "request": {
        "method": "PUT",
        "url": "Condition/COND08392"
      }
    },
    {
      "resource": {
        "resourceType": "Patient",
        "id": "TW00385",
        "identifier": [
          {
            "system": "http://www.moi.gov.tw/",
            "value": "TW00385"
          }
        ],
        "active": true,
        "name": [
          {
            "use": "official",
            "text": "測試病患00385"
          }
        ],
        "gender": "female",
        "birthDate": "1993-12-17"
      },
      "request": {
        "method": "PUT",
        "url": "Patient/TW00385"
      }
    },
    {
      "resource": {
        "resourceType": "Encounter",
        "id": "ENC05393",
        "status": "finished",
        "class": {
          "system": "http://terminology.hl7.org/CodeSystem/v3-ActCode",
          "code": "IMP",
          "display": "住院"
        },
        "subject": {
          "reference": "Patient/TW00385"
        },
        "period": {
          "start": "2025-10-29T19:14:00",
          "end": "2025-10-31T19:14:00"
        },
        "serviceProvider": {
          "reference": "Organization/HOSP001",
          "display": "測試醫院"
        }
      },
      "request": {
        "method": "PUT",
        "url": "Encounter/ENC05393"
      }
    },
    {
      "resource": {
        "resourceType": "Condition",
        "id": "COND08393",
        "clinicalStatus": {
          "coding": [
            {
              "system": "http://terminology.hl7.org/CodeSystem/condition-clinical",
              "code": "active"
            }
          ]
        },
        "verificationStatus": {
          "coding": [
            {
              "system": "http://terminology.hl7.org/CodeSystem/condition-ver-status",
              "code": "confirmed"
            }
          ]
        },
        "code": {
          "coding": [
            {
              "system": "http://hl7.org/fhir/sid/icd-10",
              "code": "O80",
              "display": "自然單胎分娩"
            }
          ]
        },
        "subject": {
          "reference": "Patient/TW00385"
        },
        "encounter": {
          "reference": "Encounter/ENC05393"
        }
      },
      "request": {
        "method": "PUT",
        "url": "Condition/COND08393"
      }
    },
    {
      "resource": {
        "resourceType": "Patient",
        "id": "TW00386",
        "identifier": [
          {
            "system": "http://www.moi.gov.tw/",
            "value": "TW00386"
          }
        ],
        "active": true,
        "name": [
          {
            "use": "official",
            "text": "測試病患00386"
          }
        ],
        "gender": "female",
        "birthDate": "2003-01-16"
      },
      "request": {
        "method": "PUT",
        "url": "Patient/TW00386"
      }
    },
    {
      "resource": {
        "resourceType": "Encounter",
        "id": "ENC05394",
        "status": "finished",
        "class": {
          "system": "http://terminology.hl7.org/CodeSystem/v3-ActCode",
          "code": "IMP",
          "display": "住院"
        },
        "subject": {
          "reference": "Patient/TW00386"
        },
        "period": {
          "start": "2025-12-09T12:00:00",
          "end": "2025-12-11T12:00:00"
        },
        "serviceProvider": {
          "reference": "Organization/HOSP001",
          "display": "測試醫院"
        }
      },
      "request": {
        "method": "PUT",
        "url": "Encounter/ENC05394"
      }
    },
    {
      "resource": {
        "resourceType": "Condition",
        "id": "COND08394",
        "clinicalStatus": {
          "coding": [
            {
              "system": "http://terminology.hl7.org/CodeSystem/condition-clinical",
              "code": "active"
            }
          ]
        },
        "verificationStatus": {
          "coding": [
            {
              "system": "http://terminology.hl7.org/CodeSystem/condition-ver-status",
              "code": "confirmed"
            }
          ]
        },
        "code": {
          "coding": [
            {
              "system": "http://hl7.org/fhir/sid/icd-10",
              "code": "O80",
              "display": "自然單胎分娩"
            }
          ]
        },
        "subject": {
          "reference": "Patient/TW00386"
        },
        "encounter": {
          "reference": "Encounter/ENC05394"
        }
      },
      "request": {
        "method": "PUT",
        "url": "Condition/COND08394"
      }
    },
    {
      "resource": {
        "resourceType": "Patient",
        "id": "TW00387",
        "identifier": [
          {
            "system": "http://www.moi.gov.tw/",
            "value": "TW00387"
          }
        ],
        "active": true,
        "name": [
          {
            "use": "official",
            "text": "測試病患00387"
          }
        ],
        "gender": "female",
        "birthDate": "1991-06-02"
      },
      "request": {
        "method": "PUT",
        "url": "Patient/TW00387"
      }
    },
    {
      "resource": {
        "resourceType": "Encounter",
        "id": "ENC05395",
        "status": "finished",
        "class": {
          "system": "http://terminology.hl7.org/CodeSystem/v3-ActCode",
          "code": "IMP",
          "display": "住院"
        },
        "subject": {
          "reference": "Patient/TW00387"
        },
        "period": {
          "start": "2025-11-08T12:03:00",
          "end": "2025-11-11T12:03:00"
        },
        "serviceProvider": {
          "reference": "Organization/HOSP001",
          "display": "測試醫院"
        }
      },
      "request": {
        "method": "PUT",
        "url": "Encounter/ENC05395"
      }
    },
    {
      "resource": {
        "resourceType": "Condition",
        "id": "COND08395",
        "clinicalStatus": {
          "coding": [
            {
              "system": "http://terminology.hl7.org/CodeSystem/condition-clinical",
              "code": "active"
            }
          ]
        },
        "verificationStatus": {
          "coding": [
            {
              "system": "http://terminology.hl7.org/CodeSystem/condition-ver-status",
              "code": "confirmed"
            }
          ]
        },
        "code": {
          "coding": [
            {
              "system": "http://hl7.org/fhir/sid/icd-10",
              "code": "O80",
              "display": "自然單胎分娩"
            }
          ]
        },
        "subject": {
          "reference": "Patient/TW00387"
        },
        "encounter": {
          "reference": "Encounter/ENC05395"
        }
      },
      "request": {
        "method": "PUT",
        "url": "Condition/COND08395"
      }
    },
    {
      "resource": {
        "resourceType": "Patient",
        "id": "TW00388",
        "identifier": [
          {
            "system": "http://www.moi.gov.tw/",
            "value": "TW00388"
          }
        ],
        "active": true,
        "name": [
          {
            "use": "official",
            "text": "測試病患00388"
          }
        ],
        "gender": "female",
        "birthDate": "1990-10-25"
      },
      "request": {
        "method": "PUT",
        "url": "Patient/TW00388"
      }
    },
    {
      "resource": {
        "resourceType": "Encounter",
        "id": "ENC05396",
        "status": "finished",
        "class": {
          "system": "http://terminology.hl7.org/CodeSystem/v3-ActCode",
          "code": "IMP",
          "display": "住院"
        },
        "subject": {
          "reference": "Patient/TW00388"
        },
        "period": {
          "start": "2025-12-13T14:05:00",
          "end": "2025-12-15T14:05:00"
        },
        "serviceProvider": {
          "reference": "Organization/HOSP001",
          "display": "測試醫院"
        }
      },
      "request": {
        "method": "PUT",
        "url": "Encounter/ENC05396"
      }
    },
    {
      "resource": {
        "resourceType": "Condition",
        "id": "COND08396",
        "clinicalStatus": {
          "coding": [
            {
              "system": "http://terminology.hl7.org/CodeSystem/condition-clinical",
              "code": "active"
            }
          ]
        },
        "verificationStatus": {
          "coding": [
            {
              "system": "http://terminology.hl7.org/CodeSystem/condition-ver-status",
              "code": "confirmed"
            }
          ]
        },
        "code": {
          "coding": [
            {
              "system": "http://hl7.org/fhir/sid/icd-10",
              "code": "O80",
              "display": "自然單胎分娩"
            }
          ]
        },
        "subject": {
          "reference": "Patient/TW00388"
        },
        "encounter": {
          "reference": "Encounter/ENC05396"
        }
      },
      "request": {
        "method": "PUT",
        "url": "Condition/COND08396"
      }
    },
    {
      "resource": {
        "resourceType": "Patient",
        "id": "TW00389",
        "identifier": [
          {
            "system": "http://www.moi.gov.tw/",
            "value": "TW00389"
          }
        ],
        "active": true,
        "name": [
          {
            "use": "official",
            "text": "測試病患00389"
          }
        ],
        "gender": "female",
        "birthDate": "2005-08-04"
      },
      "request": {
        "method": "PUT",
        "url": "Patient/TW00389"
      }
    },
    {
      "resource": {
        "resourceType": "Encounter",
        "id": "ENC05397",
        "status": "finished",
        "class": {
          "system": "http://terminology.hl7.org/CodeSystem/v3-ActCode",
          "code": "IMP",
          "display": "住院"
        },
        "subject": {
          "reference": "Patient/TW00389"
        },
        "period": {
          "start": "2025-12-11T17:25:00",
          "end": "2025-12-13T17:25:00"
        },
        "serviceProvider": {
          "reference": "Organization/HOSP001",
          "display": "測試醫院"
        }
      },
      "request": {
        "method": "PUT",
        "url": "Encounter/ENC05397"
      }
    },
    {
      "resource": {
        "resourceType": "Condition",
        "id": "COND08397",
        "clinicalStatus": {
          "coding": [
            {
              "system": "http://terminology.hl7.org/CodeSystem/condition-clinical",
              "code": "active"
            }
          ]
        },
        "verificationStatus": {
          "coding": [
            {
              "system": "http://terminology.hl7.org/CodeSystem/condition-ver-status",
              "code": "confirmed"
            }
          ]
        },
        "code": {
          "coding": [
            {
              "system": "http://hl7.org/fhir/sid/icd-10",
              "code": "O80",
              "display": "自然單胎分娩"
            }
          ]
        },
        "subject": {
          "reference": "Patient/TW00389"
        },
        "encounter": {
          "reference": "Encounter/ENC05397"
        }
      },
      "request": {
        "method": "PUT",
        "url": "Condition/COND08397"
      }
    },
    {
      "resource": {
        "resourceType": "Patient",
        "id": "TW00390",
        "identifier": [
          {
            "system": "http://www.moi.gov.tw/",
            "value": "TW00390"
          }
        ],
        "active": true,
        "name": [
          {
            "use": "official",
            "text": "測試病患00390"
          }
        ],
        "gender": "female",
        "birthDate": "1988-12-11"
      },
      "request": {
        "method": "PUT",
        "url": "Patient/TW00390"
      }
    },
    {
      "resource": {
        "resourceType": "Encounter",
        "id": "ENC05398",
        "status": "finished",
        "class": {
          "system": "http://terminology.hl7.org/CodeSystem/v3-ActCode",
          "code": "IMP",
          "display": "住院"
        },
        "subject": {
          "reference": "Patient/TW00390"
        },
        "period": {
          "start": "2025-11-10T15:14:00",
          "end": "2025-11-14T15:14:00"
        },
        "serviceProvider": {
          "reference": "Organization/HOSP001",
          "display": "測試醫院"
        }
      },
      "request": {
        "method": "PUT",
        "url": "Encounter/ENC05398"
      }
    },
    {
      "resource": {
        "resourceType": "Condition",
        "id": "COND08398",
        "clinicalStatus": {
          "coding": [
            {
              "system": "http://terminology.hl7.org/CodeSystem/condition-clinical",
              "code": "active"
            }
          ]
        },
        "verificationStatus": {
          "coding": [
            {
              "system": "http://terminology.hl7.org/CodeSystem/condition-ver-status",
              "code": "confirmed"
            }
          ]
        },
        "code": {
          "coding": [
            {
              "system": "http://hl7.org/fhir/sid/icd-10",
              "code": "O64.9",
              "display": "難產"
            }
          ]
        },
        "subject": {
          "reference": "Patient/TW00390"
        },
        "encounter": {
          "reference": "Encounter/ENC05398"
        }
      },
      "request": {
        "method": "PUT",
        "url": "Condition/COND08398"
      }
    },
    {
      "resource": {
        "resourceType": "Condition",
        "id": "COND08399",
        "clinicalStatus": {
          "coding": [
            {
              "system": "http://terminology.hl7.org/CodeSystem/condition-clinical",
              "code": "active"
            }
          ]
        },
        "verificationStatus": {
          "coding": [
            {
              "system": "http://terminology.hl7.org/CodeSystem/condition-ver-status",
              "code": "confirmed"
            }
          ]
        },
        "code": {
          "coding": [
            {
              "system": "http://hl7.org/fhir/sid/icd-10",
              "code": "O82",
              "display": "剖腹產分娩"
            }
          ]
        },
        "subject": {
          "reference": "Patient/TW00390"
        },
        "encounter": {
          "reference": "Encounter/ENC05398"
        }
      },
      "request": {
        "method": "PUT",
        "url": "Condition/COND08399"
      }
    },
    {
      "resource": {
        "resourceType": "Procedure",
        "id": "PROC09362",
        "status": "completed",
        "code": {
          "coding": [
            {
              "system": "http://hl7.org/fhir/sid/icd-10-pcs",
              "code": "10D00Z0",
              "display": "低位剖腹產"
            }
          ]
        },
        "subject": {
          "reference": "Patient/TW00390"
        },
        "encounter": {
          "reference": "Encounter/ENC05398"
        },
        "performedDateTime": "2025-11-10T20:14:00"
      },
      "request": {
        "method": "PUT",
        "url": "Procedure/PROC09362"
      }
    },
    {
      "resource": {
        "resourceType": "Observation",
        "id": "OBS10362",
        "status": "final",
        "code": {
          "coding": [
            {
              "system": "http://loinc.org",
              "code": "11996-6",
              "display": "Gravida"
            }
          ]
        },
        "subject": {
          "reference": "Patient/TW00390"
        },
        "encounter": {
          "reference": "Encounter/ENC05398"
        },
        "valueInteger": 1,
        "component": [
          {
            "code": {
              "coding": [
                {
                  "system": "http://loinc.org",
                  "code": "11977-6",
                  "display": "Para"
                }
              ]
            },
            "valueInteger": 0
          }
        ]
      },
      "request": {
        "method": "PUT",
        "url": "Observation/OBS10362"
      }
    },
    {
      "resource": {
        "resourceType": "Patient",
        "id": "TW00391",
        "identifier": [
          {
            "system": "http://www.moi.gov.tw/",
            "value": "TW00391"
          }
        ],
        "active": true,
        "name": [
          {
            "use": "official",
            "text": "測試病患00391"
          }
        ],
        "gender": "female",
        "birthDate": "1992-05-08"
      },
      "request": {
        "method": "PUT",
        "url": "Patient/TW00391"
      }
    },
    {
      "resource": {
        "resourceType": "Encounter",
        "id": "ENC05399",
        "status": "finished",
        "class": {
          "system": "http://terminology.hl7.org/CodeSystem/v3-ActCode",
          "code": "IMP",
          "display": "住院"
        },
        "subject": {
          "reference": "Patient/TW00391"
        },
        "period": {
          "start": "2025-10-25T09:51:00",
          "end": "2025-10-30T09:51:00"
        },
        "serviceProvider": {
          "reference": "Organization/HOSP001",
          "display": "測試醫院"
        }
      },
      "request": {
        "method": "PUT",
        "url": "Encounter/ENC05399"
      }
    },
    {
      "resource": {
        "resourceType": "Condition",
        "id": "COND08400",
        "clinicalStatus": {
          "coding": [
            {
              "system": "http://terminology.hl7.org/CodeSystem/condition-clinical",
              "code": "active"
            }
          ]
        },
        "verificationStatus": {
          "coding": [
            {
              "system": "http://terminology.hl7.org/CodeSystem/condition-ver-status",
              "code": "confirmed"
            }
          ]
        },
        "code": {
          "coding": [
            {
              "system": "http://hl7.org/fhir/sid/icd-10",
              "code": "O32.2",
              "display": "橫位"
            }
          ]
        },
        "subject": {
          "reference": "Patient/TW00391"
        },
        "encounter": {
          "reference": "Encounter/ENC05399"
        }
      },
      "request": {
        "method": "PUT",
        "url": "Condition/COND08400"
      }
    },
    {
      "resource": {
        "resourceType": "Condition",
        "id": "COND08401",
        "clinicalStatus": {
          "coding": [
            {
              "system": "http://terminology.hl7.org/CodeSystem/condition-clinical",
              "code": "active"
            }
          ]
        },
        "verificationStatus": {
          "coding": [
            {
              "system": "http://terminology.hl7.org/CodeSystem/condition-ver-status",
              "code": "confirmed"
            }
          ]
        },
        "code": {
          "coding": [
            {
              "system": "http://hl7.org/fhir/sid/icd-10",
              "code": "O82",
              "display": "剖腹產分娩"
            }
          ]
        },
        "subject": {
          "reference": "Patient/TW00391"
        },
        "encounter": {
          "reference": "Encounter/ENC05399"
        }
      },
      "request": {
        "method": "PUT",
        "url": "Condition/COND08401"
      }
    },
    {
      "resource": {
        "resourceType": "Procedure",
        "id": "PROC09363",
        "status": "completed",
        "code": {
          "coding": [
            {
              "system": "http://hl7.org/fhir/sid/icd-10-pcs",
              "code": "10D00Z0",
              "display": "低位剖腹產"
            }
          ]
        },
        "subject": {
          "reference": "Patient/TW00391"
        },
        "encounter": {
          "reference": "Encounter/ENC05399"
        },
        "performedDateTime": "2025-10-25T12:51:00"
      },
      "request": {
        "method": "PUT",
        "url": "Procedure/PROC09363"
      }
    },
    {
      "resource": {
        "resourceType": "Observation",
        "id": "OBS10363",
        "status": "final",
        "code": {
          "coding": [
            {
              "system": "http://loinc.org",
              "code": "11996-6",
              "display": "Gravida"
            }
          ]
        },
        "subject": {
          "reference": "Patient/TW00391"
        },
        "encounter": {
          "reference": "Encounter/ENC05399"
        },
        "valueInteger": 1,
        "component": [
          {
            "code": {
              "coding": [
                {
                  "system": "http://loinc.org",
                  "code": "11977-6",
                  "display": "Para"
                }
              ]
            },
            "valueInteger": 0
          }
        ]
      },
      "request": {
        "method": "PUT",
        "url": "Observation/OBS10363"
      }
    },
    {
      "resource": {
        "resourceType": "Patient",
        "id": "TW00392",
        "identifier": [
          {
            "system": "http://www.moi.gov.tw/",
            "value": "TW00392"
          }
        ],
        "active": true,
        "name": [
          {
            "use": "official",
            "text": "測試病患00392"
          }
        ],
        "gender": "female",
        "birthDate": "1989-10-21"
      },
      "request": {
        "method": "PUT",
        "url": "Patient/TW00392"
      }
    },
    {
      "resource": {
        "resourceType": "Encounter",
        "id": "ENC05400",
        "status": "finished",
        "class": {
          "system": "http://terminology.hl7.org/CodeSystem/v3-ActCode",
          "code": "IMP",
          "display": "住院"
        },
        "subject": {
          "reference": "Patient/TW00392"
        },
        "period": {
          "start": "2025-12-22T20:49:00",
          "end": "2025-12-26T20:49:00"
        },
        "serviceProvider": {
          "reference": "Organization/HOSP001",
          "display": "測試醫院"
        }
      },
      "request": {
        "method": "PUT",
        "url": "Encounter/ENC05400"
      }
    },
    {
      "resource": {
        "resourceType": "Condition",
        "id": "COND08402",
        "clinicalStatus": {
          "coding": [
            {
              "system": "http://terminology.hl7.org/CodeSystem/condition-clinical",
              "code": "active"
            }
          ]
        },
        "verificationStatus": {
          "coding": [
            {
              "system": "http://terminology.hl7.org/CodeSystem/condition-ver-status",
              "code": "confirmed"
            }
          ]
        },
        "code": {
          "coding": [
            {
              "system": "http://hl7.org/fhir/sid/icd-10",
              "code": "O36.3",
              "display": "胎兒窘迫"
            }
          ]
        },
        "subject": {
          "reference": "Patient/TW00392"
        },
        "encounter": {
          "reference": "Encounter/ENC05400"
        }
      },
      "request": {
        "method": "PUT",
        "url": "Condition/COND08402"
      }
    },
    {
      "resource": {
        "resourceType": "Condition",
        "id": "COND08403",
        "clinicalStatus": {
          "coding": [
            {
              "system": "http://terminology.hl7.org/CodeSystem/condition-clinical",
              "code": "active"
            }
          ]
        },
        "verificationStatus": {
          "coding": [
            {
              "system": "http://terminology.hl7.org/CodeSystem/condition-ver-status",
              "code": "confirmed"
            }
          ]
        },
        "code": {
          "coding": [
            {
              "system": "http://hl7.org/fhir/sid/icd-10",
              "code": "O82",
              "display": "剖腹產分娩"
            }
          ]
        },
        "subject": {
          "reference": "Patient/TW00392"
        },
        "encounter": {
          "reference": "Encounter/ENC05400"
        }
      },
      "request": {
        "method": "PUT",
        "url": "Condition/COND08403"
      }
    },
    {
      "resource": {
        "resourceType": "Procedure",
        "id": "PROC09364",
        "status": "completed",
        "code": {
          "coding": [
            {
              "system": "http://hl7.org/fhir/sid/icd-10-pcs",
              "code": "10D00Z0",
              "display": "低位剖腹產"
            }
          ]
        },
        "subject": {
          "reference": "Patient/TW00392"
        },
        "encounter": {
          "reference": "Encounter/ENC05400"
        },
        "performedDateTime": "2025-12-23T02:49:00"
      },
      "request": {
        "method": "PUT",
        "url": "Procedure/PROC09364"
      }
    },
    {
      "resource": {
        "resourceType": "Observation",
        "id": "OBS10364",
        "status": "final",
        "code": {
          "coding": [
            {
              "system": "http://loinc.org",
              "code": "11996-6",
              "display": "Gravida"
            }
          ]
        },
        "subject": {
          "reference": "Patient/TW00392"
        },
        "encounter": {
          "reference": "Encounter/ENC05400"
        },
        "valueInteger": 1,
        "component": [
          {
            "code": {
              "coding": [
                {
                  "system": "http://loinc.org",
                  "code": "11977-6",
                  "display": "Para"
                }
              ]
            },
            "valueInteger": 0
          }
        ]
      },
      "request": {
        "method": "PUT",
        "url": "Observation/OBS10364"
      }
    },
    {
      "resource": {
        "resourceType": "Patient",
        "id": "TW00393",
        "identifier": [
          {
            "system": "http://www.moi.gov.tw/",
            "value": "TW00393"
          }
        ],
        "active": true,
        "name": [
          {
            "use": "official",
            "text": "測試病患00393"
          }
        ],
        "gender": "female",
        "birthDate": "1990-08-10"
      },
      "request": {
        "method": "PUT",
        "url": "Patient/TW00393"
      }
    },
    {
      "resource": {
        "resourceType": "Encounter",
        "id": "ENC05401",
        "status": "finished",
        "class": {
          "system": "http://terminology.hl7.org/CodeSystem/v3-ActCode",
          "code": "IMP",
          "display": "住院"
        },
        "subject": {
          "reference": "Patient/TW00393"
        },
        "period": {
          "start": "2025-11-09T18:27:00",
          "end": "2025-11-13T18:27:00"
        },
        "serviceProvider": {
          "reference": "Organization/HOSP001",
          "display": "測試醫院"
        }
      },
      "request": {
        "method": "PUT",
        "url": "Encounter/ENC05401"
      }
    },
    {
      "resource": {
        "resourceType": "Condition",
        "id": "COND08404",
        "clinicalStatus": {
          "coding": [
            {
              "system": "http://terminology.hl7.org/CodeSystem/condition-clinical",
              "code": "active"
            }
          ]
        },
        "verificationStatus": {
          "coding": [
            {
              "system": "http://terminology.hl7.org/CodeSystem/condition-ver-status",
              "code": "confirmed"
            }
          ]
        },
        "code": {
          "coding": [
            {
              "system": "http://hl7.org/fhir/sid/icd-10",
              "code": "O36.3",
              "display": "胎兒窘迫"
            }
          ]
        },
        "subject": {
          "reference": "Patient/TW00393"
        },
        "encounter": {
          "reference": "Encounter/ENC05401"
        }
      },
      "request": {
        "method": "PUT",
        "url": "Condition/COND08404"
      }
    },
    {
      "resource": {
        "resourceType": "Condition",
        "id": "COND08405",
        "clinicalStatus": {
          "coding": [
            {
              "system": "http://terminology.hl7.org/CodeSystem/condition-clinical",
              "code": "active"
            }
          ]
        },
        "verificationStatus": {
          "coding": [
            {
              "system": "http://terminology.hl7.org/CodeSystem/condition-ver-status",
              "code": "confirmed"
            }
          ]
        },
        "code": {
          "coding": [
            {
              "system": "http://hl7.org/fhir/sid/icd-10",
              "code": "O82",
              "display": "剖腹產分娩"
            }
          ]
        },
        "subject": {
          "reference": "Patient/TW00393"
        },
        "encounter": {
          "reference": "Encounter/ENC05401"
        }
      },
      "request": {
        "method": "PUT",
        "url": "Condition/COND08405"
      }
    },
    {
      "resource": {
        "resourceType": "Procedure",
        "id": "PROC09365",
        "status": "completed",
        "code": {
          "coding": [
            {
              "system": "http://hl7.org/fhir/sid/icd-10-pcs",
              "code": "10D00Z0",
              "display": "低位剖腹產"
            }
          ]
        },
        "subject": {
          "reference": "Patient/TW00393"
        },
        "encounter": {
          "reference": "Encounter/ENC05401"
        },
        "performedDateTime": "2025-11-09T20:27:00"
      },
      "request": {
        "method": "PUT",
        "url": "Procedure/PROC09365"
      }
    },
    {
      "resource": {
        "resourceType": "Observation",
        "id": "OBS10365",
        "status": "final",
        "code": {
          "coding": [
            {
              "system": "http://loinc.org",
              "code": "11996-6",
              "display": "Gravida"
            }
          ]
        },
        "subject": {
          "reference": "Patient/TW00393"
        },
        "encounter": {
          "reference": "Encounter/ENC05401"
        },
        "valueInteger": 1,
        "component": [
          {
            "code": {
              "coding": [
                {
                  "system": "http://loinc.org",
                  "code": "11977-6",
                  "display": "Para"
                }
              ]
            },
            "valueInteger": 0
          }
        ]
      },
      "request": {
        "method": "PUT",
        "url": "Observation/OBS10365"
      }
    },
    {
      "resource": {
        "resourceType": "Patient",
        "id": "TW00394",
        "identifier": [
          {
            "system": "http://www.moi.gov.tw/",
            "value": "TW00394"
          }
        ],
        "active": true,
        "name": [
          {
            "use": "official",
            "text": "測試病患00394"
          }
        ],
        "gender": "female",
        "birthDate": "1992-04-05"
      },
      "request": {
        "method": "PUT",
        "url": "Patient/TW00394"
      }
    },
    {
      "resource": {
        "resourceType": "Encounter",
        "id": "ENC05402",
        "status": "finished",
        "class": {
          "system": "http://terminology.hl7.org/CodeSystem/v3-ActCode",
          "code": "IMP",
          "display": "住院"
        },
        "subject": {
          "reference": "Patient/TW00394"
        },
        "period": {
          "start": "2025-12-16T15:44:00",
          "end": "2025-12-20T15:44:00"
        },
        "serviceProvider": {
          "reference": "Organization/HOSP001",
          "display": "測試醫院"
        }
      },
      "request": {
        "method": "PUT",
        "url": "Encounter/ENC05402"
      }
    },
    {
      "resource": {
        "resourceType": "Condition",
        "id": "COND08406",
        "clinicalStatus": {
          "coding": [
            {
              "system": "http://terminology.hl7.org/CodeSystem/condition-clinical",
              "code": "active"
            }
          ]
        },
        "verificationStatus": {
          "coding": [
            {
              "system": "http://terminology.hl7.org/CodeSystem/condition-ver-status",
              "code": "confirmed"
            }
          ]
        },
        "code": {
          "coding": [
            {
              "system": "http://hl7.org/fhir/sid/icd-10",
              "code": "O64.9",
              "display": "難產"
            }
          ]
        },
        "subject": {
          "reference": "Patient/TW00394"
        },
        "encounter": {
          "reference": "Encounter/ENC05402"
        }
      },
      "request": {
        "method": "PUT",
        "url": "Condition/COND08406"
      }
    },
    {
      "resource": {
        "resourceType": "Condition",
        "id": "COND08407",
        "clinicalStatus": {
          "coding": [
            {
              "system": "http://terminology.hl7.org/CodeSystem/condition-clinical",
              "code": "active"
            }
          ]
        },
        "verificationStatus": {
          "coding": [
            {
              "system": "http://terminology.hl7.org/CodeSystem/condition-ver-status",
              "code": "confirmed"
            }
          ]
        },
        "code": {
          "coding": [
            {
              "system": "http://hl7.org/fhir/sid/icd-10",
              "code": "O82",
              "display": "剖腹產分娩"
            }
          ]
        },
        "subject": {
          "reference": "Patient/TW00394"
        },
        "encounter": {
          "reference": "Encounter/ENC05402"
        }
      },
      "request": {
        "method": "PUT",
        "url": "Condition/COND08407"
      }
    },
    {
      "resource": {
        "resourceType": "Procedure",
        "id": "PROC09366",
        "status": "completed",
        "code": {
          "coding": [
            {
              "system": "http://hl7.org/fhir/sid/icd-10-pcs",
              "code": "10D00Z0",
              "display": "低位剖腹產"
            }
          ]
        },
        "subject": {
          "reference": "Patient/TW00394"
        },
        "encounter": {
          "reference": "Encounter/ENC05402"
        },
        "performedDateTime": "2025-12-16T18:44:00"
      },
      "request": {
        "method": "PUT",
        "url": "Procedure/PROC09366"
      }
    },
    {
      "resource": {
        "resourceType": "Observation",
        "id": "OBS10366",
        "status": "final",
        "code": {
          "coding": [
            {
              "system": "http://loinc.org",
              "code": "11996-6",
              "display": "Gravida"
            }
          ]
        },
        "subject": {
          "reference": "Patient/TW00394"
        },
        "encounter": {
          "reference": "Encounter/ENC05402"
        },
        "valueInteger": 3,
        "component": [
          {
            "code": {
              "coding": [
                {
                  "system": "http://loinc.org",
                  "code": "11977-6",
                  "display": "Para"
                }
              ]
            },
            "valueInteger": 2
          }
        ]
      },
      "request": {
        "method": "PUT",
        "url": "Observation/OBS10366"
      }
    },
    {
      "resource": {
        "resourceType": "Patient",
        "id": "TW00395",
        "identifier": [
          {
            "system": "http://www.moi.gov.tw/",
            "value": "TW00395"
          }
        ],
        "active": true,
        "name": [
          {
            "use": "official",
            "text": "測試病患00395"
          }
        ],
        "gender": "female",
        "birthDate": "1991-12-06"
      },
      "request": {
        "method": "PUT",
        "url": "Patient/TW00395"
      }
    },
    {
      "resource": {
        "resourceType": "Encounter",
        "id": "ENC05403",
        "status": "finished",
        "class": {
          "system": "http://terminology.hl7.org/CodeSystem/v3-ActCode",
          "code": "IMP",
          "display": "住院"
        },
        "subject": {
          "reference": "Patient/TW00395"
        },
        "period": {
          "start": "2025-12-07T13:47:00",
          "end": "2025-12-12T13:47:00"
        },
        "serviceProvider": {
          "reference": "Organization/HOSP001",
          "display": "測試醫院"
        }
      },
      "request": {
        "method": "PUT",
        "url": "Encounter/ENC05403"
      }
    },
    {
      "resource": {
        "resourceType": "Condition",
        "id": "COND08408",
        "clinicalStatus": {
          "coding": [
            {
              "system": "http://terminology.hl7.org/CodeSystem/condition-clinical",
              "code": "active"
            }
          ]
        },
        "verificationStatus": {
          "coding": [
            {
              "system": "http://terminology.hl7.org/CodeSystem/condition-ver-status",
              "code": "confirmed"
            }
          ]
        },
        "code": {
          "coding": [
            {
              "system": "http://hl7.org/fhir/sid/icd-10",
              "code": "O36.3",
              "display": "胎兒窘迫"
            }
          ]
        },
        "subject": {
          "reference": "Patient/TW00395"
        },
        "encounter": {
          "reference": "Encounter/ENC05403"
        }
      },
      "request": {
        "method": "PUT",
        "url": "Condition/COND08408"
      }
    },
    {
      "resource": {
        "resourceType": "Condition",
        "id": "COND08409",
        "clinicalStatus": {
          "coding": [
            {
              "system": "http://terminology.hl7.org/CodeSystem/condition-clinical",
              "code": "active"
            }
          ]
        },
        "verificationStatus": {
          "coding": [
            {
              "system": "http://terminology.hl7.org/CodeSystem/condition-ver-status",
              "code": "confirmed"
            }
          ]
        },
        "code": {
          "coding": [
            {
              "system": "http://hl7.org/fhir/sid/icd-10",
              "code": "O82",
              "display": "剖腹產分娩"
            }
          ]
        },
        "subject": {
          "reference": "Patient/TW00395"
        },
        "encounter": {
          "reference": "Encounter/ENC05403"
        }
      },
      "request": {
        "method": "PUT",
        "url": "Condition/COND08409"
      }
    },
    {
      "resource": {
        "resourceType": "Procedure",
        "id": "PROC09367",
        "status": "completed",
        "code": {
          "coding": [
            {
              "system": "http://hl7.org/fhir/sid/icd-10-pcs",
              "code": "10D00Z0",
              "display": "低位剖腹產"
            }
          ]
        },
        "subject": {
          "reference": "Patient/TW00395"
        },
        "encounter": {
          "reference": "Encounter/ENC05403"
        },
        "performedDateTime": "2025-12-07T19:47:00"
      },
      "request": {
        "method": "PUT",
        "url": "Procedure/PROC09367"
      }
    },
    {
      "resource": {
        "resourceType": "Observation",
        "id": "OBS10367",
        "status": "final",
        "code": {
          "coding": [
            {
              "system": "http://loinc.org",
              "code": "11996-6",
              "display": "Gravida"
            }
          ]
        },
        "subject": {
          "reference": "Patient/TW00395"
        },
        "encounter": {
          "reference": "Encounter/ENC05403"
        },
        "valueInteger": 3,
        "component": [
          {
            "code": {
              "coding": [
                {
                  "system": "http://loinc.org",
                  "code": "11977-6",
                  "display": "Para"
                }
              ]
            },
            "valueInteger": 2
          }
        ]
      },
      "request": {
        "method": "PUT",
        "url": "Observation/OBS10367"
      }
    },
    {
      "resource": {
        "resourceType": "Patient",
        "id": "TW00396",
        "identifier": [
          {
            "system": "http://www.moi.gov.tw/",
            "value": "TW00396"
          }
        ],
        "active": true,
        "name": [
          {
            "use": "official",
            "text": "測試病患00396"
          }
        ],
        "gender": "male",
        "birthDate": "1987-05-25"
      },
      "request": {
        "method": "PUT",
        "url": "Patient/TW00396"
      }
    },
    {
      "resource": {
        "resourceType": "Encounter",
        "id": "ENC05404",
        "status": "finished",
        "class": {
          "system": "http://terminology.hl7.org/CodeSystem/v3-ActCode",
          "code": "IMP",
          "display": "住院"
        },
        "subject": {
          "reference": "Patient/TW00396"
        },
        "period": {
          "start": "2025-12-03T15:31:00",
          "end": "2025-12-08T15:31:00"
        },
        "serviceProvider": {
          "reference": "Organization/HOSP001",
          "display": "測試醫院"
        }
      },
      "request": {
        "method": "PUT",
        "url": "Encounter/ENC05404"
      }
    },
    {
      "resource": {
        "resourceType": "Condition",
        "id": "COND08410",
        "clinicalStatus": {
          "coding": [
            {
              "system": "http://terminology.hl7.org/CodeSystem/condition-clinical",
              "code": "active"
            }
          ]
        },
        "verificationStatus": {
          "coding": [
            {
              "system": "http://terminology.hl7.org/CodeSystem/condition-ver-status",
              "code": "confirmed"
            }
          ]
        },
        "code": {
          "coding": [
            {
              "system": "http://hl7.org/fhir/sid/icd-10",
              "code": "L03.9",
              "display": "蜂窩性組織炎"
            }
          ]
        },
        "subject": {
          "reference": "Patient/TW00396"
        },
        "encounter": {
          "reference": "Encounter/ENC05404"
        }
      },
      "request": {
        "method": "PUT",
        "url": "Condition/COND08410"
      }
    },
    {
      "resource": {
        "resourceType": "Patient",
        "id": "TW00397",
        "identifier": [
          {
            "system": "http://www.moi.gov.tw/",
            "value": "TW00397"
          }
        ],
        "active": true,
        "name": [
          {
            "use": "official",
            "text": "測試病患00397"
          }
        ],
        "gender": "female",
        "birthDate": "2000-11-19"
      },
      "request": {
        "method": "PUT",
        "url": "Patient/TW00397"
      }
    },
    {
      "resource": {
        "resourceType": "Encounter",
        "id": "ENC05405",
        "status": "finished",
        "class": {
          "system": "http://terminology.hl7.org/CodeSystem/v3-ActCode",
          "code": "IMP",
          "display": "住院"
        },
        "subject": {
          "reference": "Patient/TW00397"
        },
        "period": {
          "start": "2025-12-17T16:41:00",
          "end": "2025-12-22T16:41:00"
        },
        "serviceProvider": {
          "reference": "Organization/HOSP001",
          "display": "測試醫院"
        }
      },
      "request": {
        "method": "PUT",
        "url": "Encounter/ENC05405"
      }
    },
    {
      "resource": {
        "resourceType": "Condition",
        "id": "COND08411",
        "clinicalStatus": {
          "coding": [
            {
              "system": "http://terminology.hl7.org/CodeSystem/condition-clinical",
              "code": "active"
            }
          ]
        },
        "verificationStatus": {
          "coding": [
            {
              "system": "http://terminology.hl7.org/CodeSystem/condition-ver-status",
              "code": "confirmed"
            }
          ]
        },
        "code": {
          "coding": [
            {
              "system": "http://hl7.org/fhir/sid/icd-10",
              "code": "K35.8",
              "display": "急性闌尾炎"
            }
          ]
        },
        "subject": {
          "reference": "Patient/TW00397"
        },
        "encounter": {
          "reference": "Encounter/ENC05405"
        }
      },
      "request": {
        "method": "PUT",
        "url": "Condition/COND08411"
      }
    },
    {
      "resource": {
        "resourceType": "Patient",
        "id": "TW00398",
        "identifier": [
          {
            "system": "http://www.moi.gov.tw/",
            "value": "TW00398"
          }
        ],
        "active": true,
        "name": [
          {
            "use": "official",
            "text": "測試病患00398"
          }
        ],
        "gender": "female",
        "birthDate": "1976-11-25"
      },
      "request": {
        "method": "PUT",
        "url": "Patient/TW00398"
      }
    },
    {
      "resource": {
        "resourceType": "Encounter",
        "id": "ENC05406",
        "status": "finished",
        "class": {
          "system": "http://terminology.hl7.org/CodeSystem/v3-ActCode",
          "code": "IMP",
          "display": "住院"
        },
        "subject": {
          "reference": "Patient/TW00398"
        },
        "period": {
          "start": "2025-11-27T19:43:00",
          "end": "2025-12-03T19:43:00"
        },
        "serviceProvider": {
          "reference": "Organization/HOSP001",
          "display": "測試醫院"
        }
      },
      "request": {
        "method": "PUT",
        "url": "Encounter/ENC05406"
      }
    },
    {
      "resource": {
        "resourceType": "Condition",
        "id": "COND08412",
        "clinicalStatus": {
          "coding": [
            {
              "system": "http://terminology.hl7.org/CodeSystem/condition-clinical",
              "code": "active"
            }
          ]
        },
        "verificationStatus": {
          "coding": [
            {
              "system": "http://terminology.hl7.org/CodeSystem/condition-ver-status",
              "code": "confirmed"
            }
          ]
        },
        "code": {
          "coding": [
            {
              "system": "http://hl7.org/fhir/sid/icd-10",
              "code": "K80.2",
              "display": "膽結石"
            }
          ]
        },
        "subject": {
          "reference": "Patient/TW00398"
        },
        "encounter": {
          "reference": "Encounter/ENC05406"
        }
      },
      "request": {
        "method": "PUT",
        "url": "Condition/COND08412"
      }
    },
    {
      "resource": {
        "resourceType": "Patient",
        "id": "TW00399",
        "identifier": [
          {
            "system": "http://www.moi.gov.tw/",
            "value": "TW00399"
          }
        ],
        "active": true,
        "name": [
          {
            "use": "official",
            "text": "測試病患00399"
          }
        ],
        "gender": "female",
        "birthDate": "2000-12-28"
      },
      "request": {
        "method": "PUT",
        "url": "Patient/TW00399"
      }
    },
    {
      "resource": {
        "resourceType": "Encounter",
        "id": "ENC05407",
        "status": "finished",
        "class": {
          "system": "http://terminology.hl7.org/CodeSystem/v3-ActCode",
          "code": "IMP",
          "display": "住院"
        },
        "subject": {
          "reference": "Patient/TW00399"
        },
        "period": {
          "start": "2025-10-07T15:28:00",
          "end": "2025-10-13T15:28:00"
        },
        "serviceProvider": {
          "reference": "Organization/HOSP001",
          "display": "測試醫院"
        }
      },
      "request": {
        "method": "PUT",
        "url": "Encounter/ENC05407"
      }
    },
    {
      "resource": {
        "resourceType": "Condition",
        "id": "COND08413",
        "clinicalStatus": {
          "coding": [
            {
              "system": "http://terminology.hl7.org/CodeSystem/condition-clinical",
              "code": "active"
            }
          ]
        },
        "verificationStatus": {
          "coding": [
            {
              "system": "http://terminology.hl7.org/CodeSystem/condition-ver-status",
              "code": "confirmed"
            }
          ]
        },
        "code": {
          "coding": [
            {
              "system": "http://hl7.org/fhir/sid/icd-10",
              "code": "N20.0",
              "display": "腎結石"
            }
          ]
        },
        "subject": {
          "reference": "Patient/TW00399"
        },
        "encounter": {
          "reference": "Encounter/ENC05407"
        }
      },
      "request": {
        "method": "PUT",
        "url": "Condition/COND08413"
      }
    },
    {
      "resource": {
        "resourceType": "Patient",
        "id": "TW00400",
        "identifier": [
          {
            "system": "http://www.moi.gov.tw/",
            "value": "TW00400"
          }
        ],
        "active": true,
        "name": [
          {
            "use": "official",
            "text": "測試病患00400"
          }
        ],
        "gender": "male",
        "birthDate": "1965-01-05"
      },
      "request": {
        "method": "PUT",
        "url": "Patient/TW00400"
      }
    },
    {
      "resource": {
        "resourceType": "Encounter",
        "id": "ENC05408",
        "status": "finished",
        "class": {
          "system": "http://terminology.hl7.org/CodeSystem/v3-ActCode",
          "code": "IMP",
          "display": "住院"
        },
        "subject": {
          "reference": "Patient/TW00400"
        },
        "period": {
          "start": "2025-12-03T15:41:00",
          "end": "2025-12-09T15:41:00"
        },
        "serviceProvider": {
          "reference": "Organization/HOSP001",
          "display": "測試醫院"
        }
      },
      "request": {
        "method": "PUT",
        "url": "Encounter/ENC05408"
      }
    },
    {
      "resource": {
        "resourceType": "Condition",
        "id": "COND08414",
        "clinicalStatus": {
          "coding": [
            {
              "system": "http://terminology.hl7.org/CodeSystem/condition-clinical",
              "code": "active"
            }
          ]
        },
        "verificationStatus": {
          "coding": [
            {
              "system": "http://terminology.hl7.org/CodeSystem/condition-ver-status",
              "code": "confirmed"
            }
          ]
        },
        "code": {
          "coding": [
            {
              "system": "http://hl7.org/fhir/sid/icd-10",
              "code": "K80.2",
              "display": "膽結石"
            }
          ]
        },
        "subject": {
          "reference": "Patient/TW00400"
        },
        "encounter": {
          "reference": "Encounter/ENC05408"
        }
      },
      "request": {
        "method": "PUT",
        "url": "Condition/COND08414"
      }
    },
    {
      "resource": {
        "resourceType": "Patient",
        "id": "TW00401",
        "identifier": [
          {
            "system": "http://www.moi.gov.tw/",
            "value": "TW00401"
          }
        ],
        "active": true,
        "name": [
          {
            "use": "official",
            "text": "測試病患00401"
          }
        ],
        "gender": "female",
        "birthDate": "1985-02-25"
      },
      "request": {
        "method": "PUT",
        "url": "Patient/TW00401"
      }
    },
    {
      "resource": {
        "resourceType": "Encounter",
        "id": "ENC05409",
        "status": "finished",
        "class": {
          "system": "http://terminology.hl7.org/CodeSystem/v3-ActCode",
          "code": "IMP",
          "display": "住院"
        },
        "subject": {
          "reference": "Patient/TW00401"
        },
        "period": {
          "start": "2025-12-12T15:34:00",
          "end": "2025-12-17T15:34:00"
        },
        "serviceProvider": {
          "reference": "Organization/HOSP001",
          "display": "測試醫院"
        }
      },
      "request": {
        "method": "PUT",
        "url": "Encounter/ENC05409"
      }
    },
    {
      "resource": {
        "resourceType": "Condition",
        "id": "COND08415",
        "clinicalStatus": {
          "coding": [
            {
              "system": "http://terminology.hl7.org/CodeSystem/condition-clinical",
              "code": "active"
            }
          ]
        },
        "verificationStatus": {
          "coding": [
            {
              "system": "http://terminology.hl7.org/CodeSystem/condition-ver-status",
              "code": "confirmed"
            }
          ]
        },
        "code": {
          "coding": [
            {
              "system": "http://hl7.org/fhir/sid/icd-10",
              "code": "K80.2",
              "display": "膽結石"
            }
          ]
        },
        "subject": {
          "reference": "Patient/TW00401"
        },
        "encounter": {
          "reference": "Encounter/ENC05409"
        }
      },
      "request": {
        "method": "PUT",
        "url": "Condition/COND08415"
      }
    },
    {
      "resource": {
        "resourceType": "Patient",
        "id": "TW00402",
        "identifier": [
          {
            "system": "http://www.moi.gov.tw/",
            "value": "TW00402"
          }
        ],
        "active": true,
        "name": [
          {
            "use": "official",
            "text": "測試病患00402"
          }
        ],
        "gender": "male",
        "birthDate": "1968-04-16"
      },
      "request": {
        "method": "PUT",
        "url": "Patient/TW00402"
      }
    },
    {
      "resource": {
        "resourceType": "Encounter",
        "id": "ENC05410",
        "status": "finished",
        "class": {
          "system": "http://terminology.hl7.org/CodeSystem/v3-ActCode",
          "code": "IMP",
          "display": "住院"
        },
        "subject": {
          "reference": "Patient/TW00402"
        },
        "period": {
          "start": "2025-12-18T18:24:00",
          "end": "2025-12-24T18:24:00"
        },
        "serviceProvider": {
          "reference": "Organization/HOSP001",
          "display": "測試醫院"
        }
      },
      "request": {
        "method": "PUT",
        "url": "Encounter/ENC05410"
      }
    },
    {
      "resource": {
        "resourceType": "Condition",
        "id": "COND08416",
        "clinicalStatus": {
          "coding": [
            {
              "system": "http://terminology.hl7.org/CodeSystem/condition-clinical",
              "code": "active"
            }
          ]
        },
        "verificationStatus": {
          "coding": [
            {
              "system": "http://terminology.hl7.org/CodeSystem/condition-ver-status",
              "code": "confirmed"
            }
          ]
        },
        "code": {
          "coding": [
            {
              "system": "http://hl7.org/fhir/sid/icd-10",
              "code": "K80.2",
              "display": "膽結石"
            }
          ]
        },
        "subject": {
          "reference": "Patient/TW00402"
        },
        "encounter": {
          "reference": "Encounter/ENC05410"
        }
      },
      "request": {
        "method": "PUT",
        "url": "Condition/COND08416"
      }
    },
    {
      "resource": {
        "resourceType": "Patient",
        "id": "TW00403",
        "identifier": [
          {
            "system": "http://www.moi.gov.tw/",
            "value": "TW00403"
          }
        ],
        "active": true,
        "name": [
          {
            "use": "official",
            "text": "測試病患00403"
          }
        ],
        "gender": "female",
        "birthDate": "1972-10-16"
      },
      "request": {
        "method": "PUT",
        "url": "Patient/TW00403"
      }
    },
    {
      "resource": {
        "resourceType": "Encounter",
        "id": "ENC05411",
        "status": "finished",
        "class": {
          "system": "http://terminology.hl7.org/CodeSystem/v3-ActCode",
          "code": "IMP",
          "display": "住院"
        },
        "subject": {
          "reference": "Patient/TW00403"
        },
        "period": {
          "start": "2025-10-31T09:28:00",
          "end": "2025-11-07T09:28:00"
        },
        "serviceProvider": {
          "reference": "Organization/HOSP001",
          "display": "測試醫院"
        }
      },
      "request": {
        "method": "PUT",
        "url": "Encounter/ENC05411"
      }
    },
    {
      "resource": {
        "resourceType": "Condition",
        "id": "COND08417",
        "clinicalStatus": {
          "coding": [
            {
              "system": "http://terminology.hl7.org/CodeSystem/condition-clinical",
              "code": "active"
            }
          ]
        },
        "verificationStatus": {
          "coding": [
            {
              "system": "http://terminology.hl7.org/CodeSystem/condition-ver-status",
              "code": "confirmed"
            }
          ]
        },
        "code": {
          "coding": [
            {
              "system": "http://hl7.org/fhir/sid/icd-10",
              "code": "N20.0",
              "display": "腎結石"
            }
          ]
        },
        "subject": {
          "reference": "Patient/TW00403"
        },
        "encounter": {
          "reference": "Encounter/ENC05411"
        }
      },
      "request": {
        "method": "PUT",
        "url": "Condition/COND08417"
      }
    },
    {
      "resource": {
        "resourceType": "Patient",
        "id": "TW00404",
        "identifier": [
          {
            "system": "http://www.moi.gov.tw/",
            "value": "TW00404"
          }
        ],
        "active": true,
        "name": [
          {
            "use": "official",
            "text": "測試病患00404"
          }
        ],
        "gender": "male",
        "birthDate": "1982-09-23"
      },
      "request": {
        "method": "PUT",
        "url": "Patient/TW00404"
      }
    },
    {
      "resource": {
        "resourceType": "Encounter",
        "id": "ENC05412",
        "status": "finished",
        "class": {
          "system": "http://terminology.hl7.org/CodeSystem/v3-ActCode",
          "code": "IMP",
          "display": "住院"
        },
        "subject": {
          "reference": "Patient/TW00404"
        },
        "period": {
          "start": "2025-10-19T12:48:00",
          "end": "2025-10-25T12:48:00"
        },
        "serviceProvider": {
          "reference": "Organization/HOSP001",
          "display": "測試醫院"
        }
      },
      "request": {
        "method": "PUT",
        "url": "Encounter/ENC05412"
      }
    },
    {
      "resource": {
        "resourceType": "Condition",
        "id": "COND08418",
        "clinicalStatus": {
          "coding": [
            {
              "system": "http://terminology.hl7.org/CodeSystem/condition-clinical",
              "code": "active"
            }
          ]
        },
        "verificationStatus": {
          "coding": [
            {
              "system": "http://terminology.hl7.org/CodeSystem/condition-ver-status",
              "code": "confirmed"
            }
          ]
        },
        "code": {
          "coding": [
            {
              "system": "http://hl7.org/fhir/sid/icd-10",
              "code": "K80.2",
              "display": "膽結石"
            }
          ]
        },
        "subject": {
          "reference": "Patient/TW00404"
        },
        "encounter": {
          "reference": "Encounter/ENC05412"
        }
      },
      "request": {
        "method": "PUT",
        "url": "Condition/COND08418"
      }
    },
    {
      "resource": {
        "resourceType": "Patient",
        "id": "TW00405",
        "identifier": [
          {
            "system": "http://www.moi.gov.tw/",
            "value": "TW00405"
          }
        ],
        "active": true,
        "name": [
          {
            "use": "official",
            "text": "測試病患00405"
          }
        ],
        "gender": "female",
        "birthDate": "1990-02-20"
      },
      "request": {
        "method": "PUT",
        "url": "Patient/TW00405"
      }
    },
    {
      "resource": {
        "resourceType": "Encounter",
        "id": "ENC05413",
        "status": "finished",
        "class": {
          "system": "http://terminology.hl7.org/CodeSystem/v3-ActCode",
          "code": "IMP",
          "display": "住院"
        },
        "subject": {
          "reference": "Patient/TW00405"
        },
        "period": {
          "start": "2025-10-23T11:52:00",
          "end": "2025-10-29T11:52:00"
        },
        "serviceProvider": {
          "reference": "Organization/HOSP001",
          "display": "測試醫院"
        }
      },
      "request": {
        "method": "PUT",
        "url": "Encounter/ENC05413"
      }
    },
    {
      "resource": {
        "resourceType": "Condition",
        "id": "COND08419",
        "clinicalStatus": {
          "coding": [
            {
              "system": "http://terminology.hl7.org/CodeSystem/condition-clinical",
              "code": "active"
            }
          ]
        },
        "verificationStatus": {
          "coding": [
            {
              "system": "http://terminology.hl7.org/CodeSystem/condition-ver-status",
              "code": "confirmed"
            }
          ]
        },
        "code": {
          "coding": [
            {
              "system": "http://hl7.org/fhir/sid/icd-10",
              "code": "L03.9",
              "display": "蜂窩性組織炎"
            }
          ]
        },
        "subject": {
          "reference": "Patient/TW00405"
        },
        "encounter": {
          "reference": "Encounter/ENC05413"
        }
      },
      "request": {
        "method": "PUT",
        "url": "Condition/COND08419"
      }
    },
    {
      "resource": {
        "resourceType": "Patient",
        "id": "TW00406",
        "identifier": [
          {
            "system": "http://www.moi.gov.tw/",
            "value": "TW00406"
          }
        ],
        "active": true,
        "name": [
          {
            "use": "official",
            "text": "測試病患00406"
          }
        ],
        "gender": "female",
        "birthDate": "1973-06-10"
      },
      "request": {
        "method": "PUT",
        "url": "Patient/TW00406"
      }
    },
    {
      "resource": {
        "resourceType": "Encounter",
        "id": "ENC05414",
        "status": "finished",
        "class": {
          "system": "http://terminology.hl7.org/CodeSystem/v3-ActCode",
          "code": "IMP",
          "display": "住院"
        },
        "subject": {
          "reference": "Patient/TW00406"
        },
        "period": {
          "start": "2025-10-31T13:04:00",
          "end": "2025-11-06T13:04:00"
        },
        "serviceProvider": {
          "reference": "Organization/HOSP001",
          "display": "測試醫院"
        }
      },
      "request": {
        "method": "PUT",
        "url": "Encounter/ENC05414"
      }
    },
    {
      "resource": {
        "resourceType": "Condition",
        "id": "COND08420",
        "clinicalStatus": {
          "coding": [
            {
              "system": "http://terminology.hl7.org/CodeSystem/condition-clinical",
              "code": "active"
            }
          ]
        },
        "verificationStatus": {
          "coding": [
            {
              "system": "http://terminology.hl7.org/CodeSystem/condition-ver-status",
              "code": "confirmed"
            }
          ]
        },
        "code": {
          "coding": [
            {
              "system": "http://hl7.org/fhir/sid/icd-10",
              "code": "K35.8",
              "display": "急性闌尾炎"
            }
          ]
        },
        "subject": {
          "reference": "Patient/TW00406"
        },
        "encounter": {
          "reference": "Encounter/ENC05414"
        }
      },
      "request": {
        "method": "PUT",
        "url": "Condition/COND08420"
      }
    },
    {
      "resource": {
        "resourceType": "Patient",
        "id": "TW00407",
        "identifier": [
          {
            "system": "http://www.moi.gov.tw/",
            "value": "TW00407"
          }
        ],
        "active": true,
        "name": [
          {
            "use": "official",
            "text": "測試病患00407"
          }
        ],
        "gender": "male",
        "birthDate": "1988-08-23"
      },
      "request": {
        "method": "PUT",
        "url": "Patient/TW00407"
      }
    },
    {
      "resource": {
        "resourceType": "Encounter",
        "id": "ENC05415",
        "status": "finished",
        "class": {
          "system": "http://terminology.hl7.org/CodeSystem/v3-ActCode",
          "code": "IMP",
          "display": "住院"
        },
        "subject": {
          "reference": "Patient/TW00407"
        },
        "period": {
          "start": "2025-10-25T11:49:00",
          "end": "2025-10-30T11:49:00"
        },
        "serviceProvider": {
          "reference": "Organization/HOSP001",
          "display": "測試醫院"
        }
      },
      "request": {
        "method": "PUT",
        "url": "Encounter/ENC05415"
      }
    },
    {
      "resource": {
        "resourceType": "Condition",
        "id": "COND08421",
        "clinicalStatus": {
          "coding": [
            {
              "system": "http://terminology.hl7.org/CodeSystem/condition-clinical",
              "code": "active"
            }
          ]
        },
        "verificationStatus": {
          "coding": [
            {
              "system": "http://terminology.hl7.org/CodeSystem/condition-ver-status",
              "code": "confirmed"
            }
          ]
        },
        "code": {
          "coding": [
            {
              "system": "http://hl7.org/fhir/sid/icd-10",
              "code": "N20.0",
              "display": "腎結石"
            }
          ]
        },
        "subject": {
          "reference": "Patient/TW00407"
        },
        "encounter": {
          "reference": "Encounter/ENC05415"
        }
      },
      "request": {
        "method": "PUT",
        "url": "Condition/COND08421"
      }
    }
  ]
}