{
  "resourceType": "Bundle",
  "type": "collection",
  "entry": [
    {"resource": {"resourceType": "Patient", "id": "poly-patient-001", "active": true, "identifier": [{"system": "http://www.cgmh.org.tw/patient-id", "value": "P001234567"}], "name": [{"family": "Wang", "given": ["Ming"]}], "gender": "male", "birthDate": "1955-03-10"}},
    {"resource": {"resourceType": "Encounter", "id": "poly-encounter-001", "status": "finished", "class": {"system": "http://terminology.hl7.org/CodeSystem/v3-ActCode", "code": "AMB", "display": "ambulatory"}, "subject": {"reference": "Patient/poly-patient-001"}, "period": {"start": "2025-10-05T09:00:00+08:00", "end": "2025-10-05T09:30:00+08:00"}}},
    {"resource": {"resourceType": "MedicationRequest", "id": "poly-med-001-01", "status": "completed", "intent": "order", "medicationCodeableConcept": {"coding": [{"system": "http://www.whocc.no/atc", "code": "A012345678"}], "text": "Antihypertensive"}, "subject": {"reference": "Patient/poly-patient-001"}, "encounter": {"reference": "Encounter/poly-encounter-001"}, "authoredOn": "2025-10-05", "dispenseRequest": {"expectedSupplyDuration": {"value": 30, "unit": "days", "system": "http://unitsofmeasure.org", "code": "d"}}}},
    {"resource": {"resourceType": "MedicationRequest", "id": "poly-med-001-02", "status": "completed", "intent": "order", "medicationCodeableConcept": {"coding": [{"system": "http://www.nhi.gov.tw/drugs", "code": "B023456789"}], "text": "Antidiabetic"}, "subject": {"reference": "Patient/poly-patient-001"}, "encounter": {"reference": "Encounter/poly-encounter-001"}, "authoredOn": "2025-10-05", "dispenseRequest": {"quantity": {"value": 30}}}},
    {"resource": {"resourceType": "MedicationRequest", "id": "poly-med-001-03", "status": "completed", "intent": "order", "medicationCodeableConcept": {"coding": [{"system": "http://www.nhi.gov.tw/drugs", "code": "C034567890"}], "text": "Lipid-lowering"}, "subject": {"reference": "Patient/poly-patient-001"}, "encounter": {"reference": "Encounter/poly-encounter-001"}, "authoredOn": "2025-10-05", "dispenseRequest": {"quantity": {"value": 30}}}},
    {"resource": {"resourceType": "MedicationRequest", "id": "poly-med-001-04", "status": "completed", "intent": "order", "medicationCodeableConcept": {"coding": [{"system": "http://www.nhi.gov.tw/drugs", "code": "D045678901"}], "text": "Gastric"}, "subject": {"reference": "Patient/poly-patient-001"}, "encounter": {"reference": "Encounter/poly-encounter-001"}, "authoredOn": "2025-10-05", "dispenseRequest": {"quantity": {"value": 30}}}},
    {"resource": {"resourceType": "MedicationRequest", "id": "poly-med-001-05", "status": "completed", "intent": "order", "medicationCodeableConcept": {"coding": [{"system": "http://www.nhi.gov.tw/drugs", "code": "E056789012"}], "text": "Analgesic"}, "subject": {"reference": "Patient/poly-patient-001"}, "encounter": {"reference": "Encounter/poly-encounter-001"}, "authoredOn": "2025-10-05", "dispenseRequest": {"quantity": {"value": 30}}}},
    {"resource": {"resourceType": "MedicationRequest", "id": "poly-med-001-06", "status": "completed", "intent": "order", "medicationCodeableConcept": {"coding": [{"system": "http://www.nhi.gov.tw/drugs", "code": "F067890123"}], "text": "Vitamin B"}, "subject": {"reference": "Patient/poly-patient-001"}, "encounter": {"reference": "Encounter/poly-encounter-001"}, "authoredOn": "2025-10-05", "dispenseRequest": {"quantity": {"value": 30}}}},
    {"resource": {"resourceType": "MedicationRequest", "id": "poly-med-001-07", "status": "completed", "intent": "order", "medicationCodeableConcept": {"coding": [{"system": "http://www.nhi.gov.tw/drugs", "code": "G078901234"}], "text": "Calcium"}, "subject": {"reference": "Patient/poly-patient-001"}, "encounter": {"reference": "Encounter/poly-encounter-001"}, "authoredOn": "2025-10-05", "dispenseRequest": {"quantity": {"value": 30}}}},
    {"resource": {"resourceType": "MedicationRequest", "id": "poly-med-001-08", "status": "completed", "intent": "order", "medicationCodeableConcept": {"coding": [{"system": "http://www.nhi.gov.tw/drugs", "code": "H089012345"}], "text": "Anticoagulant"}, "subject": {"reference": "Patient/poly-patient-001"}, "encounter": {"reference": "Encounter/poly-encounter-001"}, "authoredOn": "2025-10-05", "dispenseRequest": {"quantity": {"value": 30}}}},
    {"resource": {"resourceType": "MedicationRequest", "id": "poly-med-001-09", "status": "completed", "intent": "order", "medicationCodeableConcept": {"coding": [{"system": "http://www.nhi.gov.tw/drugs", "code": "I090123456"}], "text": "Diuretic"}, "subject": {"reference": "Patient/poly-patient-001"}, "encounter": {"reference": "Encounter/poly-encounter-001"}, "authoredOn": "2025-10-05", "dispenseRequest": {"quantity": {"value": 30}}}},
    {"resource": {"resourceType": "MedicationRequest", "id": "poly-med-001-10", "status": "completed", "intent": "order", "medicationCodeableConcept": {"coding": [{"system": "http://www.nhi.gov.tw/drugs", "code": "J001234567"}], "text": "Hypnotic"}, "subject": {"reference": "Patient/poly-patient-001"}, "encounter": {"reference": "Encounter/poly-encounter-001"}, "authoredOn": "2025-10-05", "dispenseRequest": {"quantity": {"value": 30}}}},
    {"resource": {"resourceType": "Patient", "id": "poly-patient-002", "active": true, "identifier": [{"system": "http://www.cgmh.org.tw/patient-id", "value": "P002345678"}], "name": [{"family": "Li", "given": ["Hua"]}], "gender": "female", "birthDate": "1962-07-20"}},
    {"resource": {"resourceType": "Encounter", "id": "poly-encounter-002", "status": "finished", "class": {"system": "http://terminology.hl7.org/CodeSystem/v3-ActCode", "code": "AMB", "display": "ambulatory"}, "subject": {"reference": "Patient/poly-patient-002"}, "period": {"start": "2025-10-08T10:00:00+08:00", "end": "2025-10-08T10:30:00+08:00"}}},
    {"resource": {"resourceType": "MedicationRequest", "id": "poly-med-002-01", "status": "completed", "intent": "order", "medicationCodeableConcept": {"coding": [{"system": "http://www.nhi.gov.tw/drugs", "code": "A012345678"}], "text": "Antihypertensive"}, "subject": {"reference": "Patient/poly-patient-002"}, "encounter": {"reference": "Encounter/poly-encounter-002"}, "authoredOn": "2025-10-08", "dispenseRequest": {"quantity": {"value": 28}}}},
    {"resource": {"resourceType": "MedicationRequest", "id": "poly-med-002-02", "status": "completed", "intent": "order", "medicationCodeableConcept": {"coding": [{"system": "http://www.nhi.gov.tw/drugs", "code": "B023456789"}], "text": "Antidiabetic"}, "subject": {"reference": "Patient/poly-patient-002"}, "encounter": {"reference": "Encounter/poly-encounter-002"}, "authoredOn": "2025-10-08", "dispenseRequest": {"quantity": {"value": 28}}}},
    {"resource": {"resourceType": "MedicationRequest", "id": "poly-med-002-03", "status": "completed", "intent": "order", "medicationCodeableConcept": {"coding": [{"system": "http://www.nhi.gov.tw/drugs", "code": "C034567890"}], "text": "Lipid-lowering"}, "subject": {"reference": "Patient/poly-patient-002"}, "encounter": {"reference": "Encounter/poly-encounter-002"}, "authoredOn": "2025-10-08", "dispenseRequest": {"quantity": {"value": 28}}}},
    {"resource": {"resourceType": "MedicationRequest", "id": "poly-med-002-04", "status": "completed", "intent": "order", "medicationCodeableConcept": {"coding": [{"system": "http://www.nhi.gov.tw/drugs", "code": "D045678901"}], "text": "Gastric"}, "subject": {"reference": "Patient/poly-patient-002"}, "encounter": {"reference": "Encounter/poly-encounter-002"}, "authoredOn": "2025-10-08", "dispenseRequest": {"quantity": {"value": 28}}}},
    {"resource": {"resourceType": "MedicationRequest", "id": "poly-med-002-05", "status": "completed", "intent": "order", "medicationCodeableConcept": {"coding": [{"system": "http://www.nhi.gov.tw/drugs", "code": "E056789012"}], "text": "Analgesic"}, "subject": {"reference": "Patient/poly-patient-002"}, "encounter": {"reference": "Encounter/poly-encounter-002"}, "authoredOn": "2025-10-08", "dispenseRequest": {"quantity": {"value": 28}}}},
    {"resource": {"resourceType": "MedicationRequest", "id": "poly-med-002-06", "status": "completed", "intent": "order", "medicationCodeableConcept": {"coding": [{"system": "http://www.nhi.gov.tw/drugs", "code": "F067890123"}], "text": "Vitamin B"}, "subject": {"reference": "Patient/poly-patient-002"}, "encounter": {"reference": "Encounter/poly-encounter-002"}, "authoredOn": "2025-10-08", "dispenseRequest": {"quantity": {"value": 28}}}},
    {"resource": {"resourceType": "MedicationRequest", "id": "poly-med-002-07", "status": "completed", "intent": "order", "medicationCodeableConcept": {"coding": [{"system": "http://www.nhi.gov.tw/drugs", "code": "G078901234"}], "text": "Calcium"}, "subject": {"reference": "Patient/poly-patient-002"}, "encounter": {"reference": "Encounter/poly-encounter-002"}, "authoredOn": "2025-10-08", "dispenseRequest": {"quantity": {"value": 28}}}},
    {"resource": {"resourceType": "MedicationRequest", "id": "poly-med-002-08", "status": "completed", "intent": "order", "medicationCodeableConcept": {"coding": [{"system": "http://www.nhi.gov.tw/drugs", "code": "H089012345"}], "text": "Anticoagulant"}, "subject": {"reference": "Patient/poly-patient-002"}, "encounter": {"reference": "Encounter/poly-encounter-002"}, "authoredOn": "2025-10-08", "dispenseRequest": {"quantity": {"value": 28}}}},
    {"resource": {"resourceType": "MedicationRequest", "id": "poly-med-002-09", "status": "completed", "intent": "order", "medicationCodeableConcept": {"coding": [{"system": "http://www.nhi.gov.tw/drugs", "code": "I090123456"}], "text": "Diuretic"}, "subject": {"reference": "Patient/poly-patient-002"}, "encounter": {"reference": "Encounter/poly-encounter-002"}, "authoredOn": "2025-10-08", "dispenseRequest": {"quantity": {"value": 28}}}},
    {"resource": {"resourceType": "MedicationRequest", "id": "poly-med-002-10", "status": "completed", "intent": "order", "medicationCodeableConcept": {"coding": [{"system": "http://www.nhi.gov.tw/drugs", "code": "J001234567"}], "text": "Hypnotic"}, "subject": {"reference": "Patient/poly-patient-002"}, "encounter": {"reference": "Encounter/poly-encounter-002"}, "authoredOn": "2025-10-08", "dispenseRequest": {"quantity": {"value": 28}}}},
    {"resource": {"resourceType": "Patient", "id": "poly-patient-003", "active": true, "identifier": [{"system": "http://www.cgmh.org.tw/patient-id", "value": "P003456789"}], "name": [{"family": "Zhang", "given": ["Qiang"]}], "gender": "male", "birthDate": "1958-12-05"}},
    {"resource": {"resourceType": "Encounter", "id": "poly-encounter-003", "status": "finished", "class": {"system": "http://terminology.hl7.org/CodeSystem/v3-ActCode", "code": "AMB", "display": "ambulatory"}, "subject": {"reference": "Patient/poly-patient-003"}, "period": {"start": "2025-10-12T14:00:00+08:00", "end": "2025-10-12T14:30:00+08:00"}}},
    {"resource": {"resourceType": "MedicationRequest", "id": "poly-med-003-01", "status": "completed", "intent": "order", "medicationCodeableConcept": {"coding": [{"system": "http://www.nhi.gov.tw/drugs", "code": "A012345678"}], "text": "Antihypertensive"}, "subject": {"reference": "Patient/poly-patient-003"}, "encounter": {"reference": "Encounter/poly-encounter-003"}, "authoredOn": "2025-10-12", "dispenseRequest": {"quantity": {"value": 30}}}},
    {"resource": {"resourceType": "MedicationRequest", "id": "poly-med-003-02", "status": "completed", "intent": "order", "medicationCodeableConcept": {"coding": [{"system": "http://www.nhi.gov.tw/drugs", "code": "B023456789"}], "text": "Antidiabetic"}, "subject": {"reference": "Patient/poly-patient-003"}, "encounter": {"reference": "Encounter/poly-encounter-003"}, "authoredOn": "2025-10-12", "dispenseRequest": {"quantity": {"value": 30}}}},
    {"resource": {"resourceType": "MedicationRequest", "id": "poly-med-003-03", "status": "completed", "intent": "order", "medicationCodeableConcept": {"coding": [{"system": "http://www.nhi.gov.tw/drugs", "code": "C034567890"}], "text": "Lipid-lowering"}, "subject": {"reference": "Patient/poly-patient-003"}, "encounter": {"reference": "Encounter/poly-encounter-003"}, "authoredOn": "2025-10-12", "dispenseRequest": {"quantity": {"value": 30}}}},
    {"resource": {"resourceType": "MedicationRequest", "id": "poly-med-003-04", "status": "completed", "intent": "order", "medicationCodeableConcept": {"coding": [{"system": "http://www.nhi.gov.tw/drugs", "code": "D045678901"}], "text": "Gastric"}, "subject": {"reference": "Patient/poly-patient-003"}, "encounter": {"reference": "Encounter/poly-encounter-003"}, "authoredOn": "2025-10-12", "dispenseRequest": {"quantity": {"value": 30}}}},
    {"resource": {"resourceType": "MedicationRequest", "id": "poly-med-003-05", "status": "completed", "intent": "order", "medicationCodeableConcept": {"coding": [{"system": "http://www.nhi.gov.tw/drugs", "code": "E056789012"}], "text": "Analgesic"}, "subject": {"reference": "Patient/poly-patient-003"}, "encounter": {"reference": "Encounter/poly-encounter-003"}, "authoredOn": "2025-10-12", "dispenseRequest": {"quantity": {"value": 30}}}},
    {"resource": {"resourceType": "MedicationRequest", "id": "poly-med-003-06", "status": "completed", "intent": "order", "medicationCodeableConcept": {"coding": [{"system": "http://www.nhi.gov.tw/drugs", "code": "F067890123"}], "text": "Vitamin B"}, "subject": {"reference": "Patient/poly-patient-003"}, "encounter": {"reference": "Encounter/poly-encounter-003"}, "authoredOn": "2025-10-12", "dispenseRequest": {"quantity": {"value": 30}}}},
    {"resource": {"resourceType": "MedicationRequest", "id": "poly-med-003-07", "status": "completed", "intent": "order", "medicationCodeableConcept": {"coding": [{"system": "http://www.nhi.gov.tw/drugs", "code": "G078901234"}], "text": "Calcium"}, "subject": {"reference": "Patient/poly-patient-003"}, "encounter": {"reference": "Encounter/poly-encounter-003"}, "authoredOn": "2025-10-12", "dispenseRequest": {"quantity": {"value": 30}}}},
    {"resource": {"resourceType": "MedicationRequest", "id": "poly-med-003-08", "status": "completed", "intent": "order", "medicationCodeableConcept": {"coding": [{"system": "http://www.nhi.gov.tw/drugs", "code": "H089012345"}], "text": "Anticoagulant"}, "subject": {"reference": "Patient/poly-patient-003"}, "encounter": {"reference": "Encounter/poly-encounter-003"}, "authoredOn": "2025-10-12", "dispenseRequest": {"quantity": {"value": 30}}}},
    {"resource": {"resourceType": "MedicationRequest", "id": "poly-med-003-09", "status": "completed", "intent": "order", "medicationCodeableConcept": {"coding": [{"system": "http://www.nhi.gov.tw/drugs", "code": "I090123456"}], "text": "Diuretic"}, "subject": {"reference": "Patient/poly-patient-003"}, "encounter": {"reference": "Encounter/poly-encounter-003"}, "authoredOn": "2025-10-12", "dispenseRequest": {"quantity": {"value": 30}}}},
    {"resource": {"resourceType": "MedicationRequest", "id": "poly-med-003-10", "status": "completed", "intent": "order", "medicationCodeableConcept": {"coding": [{"system": "http://www.nhi.gov.tw/drugs", "code": "J001234567"}], "text": "Hypnotic"}, "subject": {"reference": "Patient/poly-patient-003"}, "encounter": {"reference": "Encounter/poly-encounter-003"}, "authoredOn": "2025-10-12", "dispenseRequest": {"quantity": {"value": 30}}}},
    {"resource": {"resourceType": "Patient", "id": "poly-patient-004", "active": true, "identifier": [{"system": "http://www.cgmh.org.tw/patient-id", "value": "P004567890"}], "name": [{"family": "Chen", "given": ["Mei"]}], "gender": "female", "birthDate": "1970-04-18"}},
    {"resource": {"resourceType": "Encounter", "id": "poly-encounter-004", "status": "finished", "class": {"system": "http://terminology.hl7.org/CodeSystem/v3-ActCode", "code": "AMB", "display": "ambulatory"}, "subject": {"reference": "Patient/poly-patient-004"}, "period": {"start": "2025-10-15T11:00:00+08:00", "end": "2025-10-15T11:30:00+08:00"}}},
    {"resource": {"resourceType": "MedicationRequest", "id": "poly-med-004-01", "status": "completed", "intent": "order", "medicationCodeableConcept": {"coding": [{"system": "http://www.nhi.gov.tw/drugs", "code": "A012345678"}], "text": "Antihypertensive"}, "subject": {"reference": "Patient/poly-patient-004"}, "encounter": {"reference": "Encounter/poly-encounter-004"}, "authoredOn": "2025-10-15", "dispenseRequest": {"quantity": {"value": 30}}}},
    {"resource": {"resourceType": "MedicationRequest", "id": "poly-med-004-02", "status": "completed", "intent": "order", "medicationCodeableConcept": {"coding": [{"system": "http://www.nhi.gov.tw/drugs", "code": "B023456789"}], "text": "Antidiabetic"}, "subject": {"reference": "Patient/poly-patient-004"}, "encounter": {"reference": "Encounter/poly-encounter-004"}, "authoredOn": "2025-10-15", "dispenseRequest": {"quantity": {"value": 30}}}},
    {"resource": {"resourceType": "MedicationRequest", "id": "poly-med-004-03", "status": "completed", "intent": "order", "medicationCodeableConcept": {"coding": [{"system": "http://www.nhi.gov.tw/drugs", "code": "C034567890"}], "text": "Lipid-lowering"}, "subject": {"reference": "Patient/poly-patient-004"}, "encounter": {"reference": "Encounter/poly-encounter-004"}, "authoredOn": "2025-10-15", "dispenseRequest": {"quantity": {"value": 30}}}},
    {"resource": {"resourceType": "MedicationRequest", "id": "poly-med-004-04", "status": "completed", "intent": "order", "medicationCodeableConcept": {"coding": [{"system": "http://www.nhi.gov.tw/drugs", "code": "D045678901"}], "text": "Gastric"}, "subject": {"reference": "Patient/poly-patient-004"}, "encounter": {"reference": "Encounter/poly-encounter-004"}, "authoredOn": "2025-10-15", "dispenseRequest": {"quantity": {"value": 30}}}},
    {"resource": {"resourceType": "MedicationRequest", "id": "poly-med-004-05", "status": "completed", "intent": "order", "medicationCodeableConcept": {"coding": [{"system": "http://www.nhi.gov.tw/drugs", "code": "E056789012"}], "text": "Analgesic"}, "subject": {"reference": "Patient/poly-patient-004"}, "encounter": {"reference": "Encounter/poly-encounter-004"}, "authoredOn": "2025-10-15", "dispenseRequest": {"quantity": {"value": 30}}}},
    {"resource": {"resourceType": "MedicationRequest", "id": "poly-med-004-06", "status": "completed", "intent": "order", "medicationCodeableConcept": {"coding": [{"system": "http://www.nhi.gov.tw/drugs", "code": "F067890123"}], "text": "Vitamin B"}, "subject": {"reference": "Patient/poly-patient-004"}, "encounter": {"reference": "Encounter/poly-encounter-004"}, "authoredOn": "2025-10-15", "dispenseRequest": {"quantity": {"value": 30}}}},
    {"resource": {"resourceType": "MedicationRequest", "id": "poly-med-004-07", "status": "completed", "intent": "order", "medicationCodeableConcept": {"coding": [{"system": "http://www.nhi.gov.tw/drugs", "code": "G078901234"}], "text": "Calcium"}, "subject": {"reference": "Patient/poly-patient-004"}, "encounter": {"reference": "Encounter/poly-encounter-004"}, "authoredOn": "2025-10-15", "dispenseRequest": {"quantity": {"value": 30}}}},
    {"resource": {"resourceType": "MedicationRequest", "id": "poly-med-004-08", "status": "completed", "intent": "order", "medicationCodeableConcept": {"coding": [{"system": "http://www.nhi.gov.tw/drugs", "code": "H089012345"}], "text": "Anticoagulant"}, "subject": {"reference": "Patient/poly-patient-004"}, "encounter": {"reference": "Encounter/poly-encounter-004"}, "authoredOn": "2025-10-15", "dispenseRequest": {"quantity": {"value": 30}}}},
    {"resource": {"resourceType": "MedicationRequest", "id": "poly-med-004-09", "status": "completed", "intent": "order", "medicationCodeableConcept": {"coding": [{"system": "http://www.nhi.gov.tw/drugs", "code": "I090123456"}], "text": "Diuretic"}, "subject": {"reference": "Patient/poly-patient-004"}, "encounter": {"reference": "Encounter/poly-encounter-004"}, "authoredOn": "2025-10-15", "dispenseRequest": {"quantity": {"value": 30}}}},
    {"resource": {"resourceType": "MedicationRequest", "id": "poly-med-004-10", "status": "completed", "intent": "order", "medicationCodeableConcept": {"coding": [{"system": "http://www.nhi.gov.tw/drugs", "code": "J001234567"}], "text": "Hypnotic"}, "subject": {"reference": "Patient/poly-patient-004"}, "encounter": {"reference": "Encounter/poly-encounter-004"}, "authoredOn": "2025-10-15", "dispenseRequest": {"quantity": {"value": 30}}}},
    {"resource": {"resourceType": "Patient", "id": "poly-patient-005", "active": true, "identifier": [{"system": "http://www.cgmh.org.tw/patient-id", "value": "P005678901"}], "name": [{"family": "Huang", "given": ["Long"]}], "gender": "male", "birthDate": "1965-09-25"}},
    {"resource": {"resourceType": "Encounter", "id": "poly-encounter-005", "status": "finished", "class": {"system": "http://terminology.hl7.org/CodeSystem/v3-ActCode", "code": "AMB", "display": "ambulatory"}, "subject": {"reference": "Patient/poly-patient-005"}, "period": {"start": "2025-10-18T15:00:00+08:00", "end": "2025-10-18T15:30:00+08:00"}}},
    {"resource": {"resourceType": "MedicationRequest", "id": "poly-med-005-01", "status": "completed", "intent": "order", "medicationCodeableConcept": {"coding": [{"system": "http://www.nhi.gov.tw/drugs", "code": "A012345678"}], "text": "Antihypertensive"}, "subject": {"reference": "Patient/poly-patient-005"}, "encounter": {"reference": "Encounter/poly-encounter-005"}, "authoredOn": "2025-10-18", "dispenseRequest": {"quantity": {"value": 28}}}},
    {"resource": {"resourceType": "MedicationRequest", "id": "poly-med-005-02", "status": "completed", "intent": "order", "medicationCodeableConcept": {"coding": [{"system": "http://www.nhi.gov.tw/drugs", "code": "B023456789"}], "text": "Antidiabetic"}, "subject": {"reference": "Patient/poly-patient-005"}, "encounter": {"reference": "Encounter/poly-encounter-005"}, "authoredOn": "2025-10-18", "dispenseRequest": {"quantity": {"value": 28}}}},
    {"resource": {"resourceType": "MedicationRequest", "id": "poly-med-005-03", "status": "completed", "intent": "order", "medicationCodeableConcept": {"coding": [{"system": "http://www.nhi.gov.tw/drugs", "code": "C034567890"}], "text": "Lipid-lowering"}, "subject": {"reference": "Patient/poly-patient-005"}, "encounter": {"reference": "Encounter/poly-encounter-005"}, "authoredOn": "2025-10-18", "dispenseRequest": {"quantity": {"value": 28}}}},
    {"resource": {"resourceType": "MedicationRequest", "id": "poly-med-005-04", "status": "completed", "intent": "order", "medicationCodeableConcept": {"coding": [{"system": "http://www.nhi.gov.tw/drugs", "code": "D045678901"}], "text": "Gastric"}, "subject": {"reference": "Patient/poly-patient-005"}, "encounter": {"reference": "Encounter/poly-encounter-005"}, "authoredOn": "2025-10-18", "dispenseRequest": {"quantity": {"value": 28}}}},
    {"resource": {"resourceType": "MedicationRequest", "id": "poly-med-005-05", "status": "completed", "intent": "order", "medicationCodeableConcept": {"coding": [{"system": "http://www.nhi.gov.tw/drugs", "code": "E056789012"}], "text": "Analgesic"}, "subject": {"reference": "Patient/poly-patient-005"}, "encounter": {"reference": "Encounter/poly-encounter-005"}, "authoredOn": "2025-10-18", "dispenseRequest": {"quantity": {"value": 28}}}},
    {"resource": {"resourceType": "MedicationRequest", "id": "poly-med-005-06", "status": "completed", "intent": "order", "medicationCodeableConcept": {"coding": [{"system": "http://www.nhi.gov.tw/drugs", "code": "F067890123"}], "text": "Vitamin B"}, "subject": {"reference": "Patient/poly-patient-005"}, "encounter": {"reference": "Encounter/poly-encounter-005"}, "authoredOn": "2025-10-18", "dispenseRequest": {"quantity": {"value": 28}}}},
    {"resource": {"resourceType": "MedicationRequest", "id": "poly-med-005-07", "status": "completed", "intent": "order", "medicationCodeableConcept": {"coding": [{"system": "http://www.nhi.gov.tw/drugs", "code": "G078901234"}], "text": "Calcium"}, "subject": {"reference": "Patient/poly-patient-005"}, "encounter": {"reference": "Encounter/poly-encounter-005"}, "authoredOn": "2025-10-18", "dispenseRequest": {"quantity": {"value": 28}}}},
    {"resource": {"resourceType": "MedicationRequest", "id": "poly-med-005-08", "status": "completed", "intent": "order", "medicationCodeableConcept": {"coding": [{"system": "http://www.nhi.gov.tw/drugs", "code": "H089012345"}], "text": "Anticoagulant"}, "subject": {"reference": "Patient/poly-patient-005"}, "encounter": {"reference": "Encounter/poly-encounter-005"}, "authoredOn": "2025-10-18", "dispenseRequest": {"quantity": {"value": 28}}}},
    {"resource": {"resourceType": "MedicationRequest", "id": "poly-med-005-09", "status": "completed", "intent": "order", "medicationCodeableConcept": {"coding": [{"system": "http://www.nhi.gov.tw/drugs", "code": "I090123456"}], "text": "Diuretic"}, "subject": {"reference": "Patient/poly-patient-005"}, "encounter": {"reference": "Encounter/poly-encounter-005"}, "authoredOn": "2025-10-18", "dispenseRequest": {"quantity": {"value": 28}}}},
    {"resource": {"resourceType": "MedicationRequest", "id": "poly-med-005-10", "status": "completed", "intent": "order", "medicationCodeableConcept": {"coding": [{"system": "http://www.nhi.gov.tw/drugs", "code": "J001234567"}], "text": "Hypnotic"}, "subject": {"reference": "Patient/poly-patient-005"}, "encounter": {"reference": "Encounter/poly-encounter-005"}, "authoredOn": "2025-10-18", "dispenseRequest": {"quantity": {"value": 28}}}},
    {"resource": {"resourceType": "Patient", "id": "poly-patient-006", "active": true, "identifier": [{"system": "http://www.cgmh.org.tw/patient-id", "value": "P006789012"}], "name": [{"family": "Wu", "given": ["Juan"]}], "gender": "female", "birthDate": "1972-11-30"}},
    {"resource": {"resourceType": "Encounter", "id": "poly-encounter-006", "status": "finished", "class": {"system": "http://terminology.hl7.org/CodeSystem/v3-ActCode", "code": "AMB", "display": "ambulatory"}, "subject": {"reference": "Patient/poly-patient-006"}, "period": {"start": "2025-10-22T16:00:00+08:00", "end": "2025-10-22T16:30:00+08:00"}}},
    {"resource": {"resourceType": "MedicationRequest", "id": "poly-med-006-01", "status": "completed", "intent": "order", "medicationCodeableConcept": {"coding": [{"system": "http://www.nhi.gov.tw/drugs", "code": "A012345678"}], "text": "Antihypertensive"}, "subject": {"reference": "Patient/poly-patient-006"}, "encounter": {"reference": "Encounter/poly-encounter-006"}, "authoredOn": "2025-10-22", "dispenseRequest": {"quantity": {"value": 30}}}},
    {"resource": {"resourceType": "MedicationRequest", "id": "poly-med-006-02", "status": "completed", "intent": "order", "medicationCodeableConcept": {"coding": [{"system": "http://www.nhi.gov.tw/drugs", "code": "B023456789"}], "text": "Antidiabetic"}, "subject": {"reference": "Patient/poly-patient-006"}, "encounter": {"reference": "Encounter/poly-encounter-006"}, "authoredOn": "2025-10-22", "dispenseRequest": {"quantity": {"value": 30}}}},
    {"resource": {"resourceType": "MedicationRequest", "id": "poly-med-006-03", "status": "completed", "intent": "order", "medicationCodeableConcept": {"coding": [{"system": "http://www.nhi.gov.tw/drugs", "code": "C034567890"}], "text": "Lipid-lowering"}, "subject": {"reference": "Patient/poly-patient-006"}, "encounter": {"reference": "Encounter/poly-encounter-006"}, "authoredOn": "2025-10-22", "dispenseRequest": {"quantity": {"value": 30}}}},
    {"resource": {"resourceType": "MedicationRequest", "id": "poly-med-006-04", "status": "completed", "intent": "order", "medicationCodeableConcept": {"coding": [{"system": "http://www.nhi.gov.tw/drugs", "code": "D045678901"}], "text": "Gastric"}, "subject": {"reference": "Patient/poly-patient-006"}, "encounter": {"reference": "Encounter/poly-encounter-006"}, "authoredOn": "2025-10-22", "dispenseRequest": {"quantity": {"value": 30}}}},
    {"resource": {"resourceType": "MedicationRequest", "id": "poly-med-006-05", "status": "completed", "intent": "order", "medicationCodeableConcept": {"coding": [{"system": "http://www.nhi.gov.tw/drugs", "code": "E056789012"}], "text": "Analgesic"}, "subject": {"reference": "Patient/poly-patient-006"}, "encounter": {"reference": "Encounter/poly-encounter-006"}, "authoredOn": "2025-10-22", "dispenseRequest": {"quantity": {"value": 30}}}},
    {"resource": {"resourceType": "MedicationRequest", "id": "poly-med-006-06", "status": "completed", "intent": "order", "medicationCodeableConcept": {"coding": [{"system": "http://www.nhi.gov.tw/drugs", "code": "F067890123"}], "text": "Vitamin B"}, "subject": {"reference": "Patient/poly-patient-006"}, "encounter": {"reference": "Encounter/poly-encounter-006"}, "authoredOn": "2025-10-22", "dispenseRequest": {"quantity": {"value": 30}}}},
    {"resource": {"resourceType": "MedicationRequest", "id": "poly-med-006-07", "status": "completed", "intent": "order", "medicationCodeableConcept": {"coding": [{"system": "http://www.nhi.gov.tw/drugs", "code": "G078901234"}], "text": "Calcium"}, "subject": {"reference": "Patient/poly-patient-006"}, "encounter": {"reference": "Encounter/poly-encounter-006"}, "authoredOn": "2025-10-22", "dispenseRequest": {"quantity": {"value": 30}}}},
    {"resource": {"resourceType": "MedicationRequest", "id": "poly-med-006-08", "status": "completed", "intent": "order", "medicationCodeableConcept": {"coding": [{"system": "http://www.nhi.gov.tw/drugs", "code": "H089012345"}], "text": "Anticoagulant"}, "subject": {"reference": "Patient/poly-patient-006"}, "encounter": {"reference": "Encounter/poly-encounter-006"}, "authoredOn": "2025-10-22", "dispenseRequest": {"quantity": {"value": 30}}}},
    {"resource": {"resourceType": "MedicationRequest", "id": "poly-med-006-09", "status": "completed", "intent": "order", "medicationCodeableConcept": {"coding": [{"system": "http://www.nhi.gov.tw/drugs", "code": "I090123456"}], "text": "Diuretic"}, "subject": {"reference": "Patient/poly-patient-006"}, "encounter": {"reference": "Encounter/poly-encounter-006"}, "authoredOn": "2025-10-22", "dispenseRequest": {"quantity": {"value": 30}}}},
    {"resource": {"resourceType": "MedicationRequest", "id": "poly-med-006-10", "status": "completed", "intent": "order", "medicationCodeableConcept": {"coding": [{"system": "http://www.nhi.gov.tw/drugs", "code": "J001234567"}], "text": "Hypnotic"}, "subject": {"reference": "Patient/poly-patient-006"}, "encounter": {"reference": "Encounter/poly-encounter-006"}, "authoredOn": "2025-10-22", "dispenseRequest": {"quantity": {"value": 30}}}}
  ]
}
