{
  "resourceType": "Bundle",
  "type": "collection",
  "entry": [
    {
      "resource": {
        "resourceType": "Patient",
        "id": "poly-patient-003",
        "active": true,
        "identifier": [{"system": "http://www.cgmh.org.tw/patient-id", "value": "P003456789"}],
        "name": [{"family": "張", "given": ["國強"]}],
        "gender": "male",
        "birthDate": "1958-12-05"
      }
    },
    {
      "resource": {
        "resourceType": "Encounter",
        "id": "poly-encounter-003",
        "status": "finished",
        "class": {"system": "http://terminology.hl7.org/CodeSystem/v3-ActCode", "code": "AMB", "display": "ambulatory"},
        "subject": {"reference": "Patient/poly-patient-003"},
        "period": {"start": "2025-10-12T10:00:00+08:00", "end": "2025-10-12T10:45:00+08:00"}
      }
    },
    {"resource": {"resourceType": "MedicationRequest", "id": "poly-med-003-01", "status": "completed", "intent": "order", "medicationCodeableConcept": {"coding": [{"system": "http://www.nhi.gov.tw/drugs", "code": "C0123456"}], "text": "降血壓藥3"}, "subject": {"reference": "Patient/poly-patient-003"}, "encounter": {"reference": "Encounter/poly-encounter-003"}, "authoredOn": "2025-10-12", "dispenseRequest": {"quantity": {"value": 28}}}},
    {"resource": {"resourceType": "MedicationRequest", "id": "poly-med-003-02", "status": "completed", "intent": "order", "medicationCodeableConcept": {"coding": [{"system": "http://www.nhi.gov.tw/drugs", "code": "C0234567"}], "text": "降血糖藥3"}, "subject": {"reference": "Patient/poly-patient-003"}, "encounter": {"reference": "Encounter/poly-encounter-003"}, "authoredOn": "2025-10-12", "dispenseRequest": {"quantity": {"value": 28}}}},
    {"resource": {"resourceType": "MedicationRequest", "id": "poly-med-003-03", "status": "completed", "intent": "order", "medicationCodeableConcept": {"coding": [{"system": "http://www.nhi.gov.tw/drugs", "code": "C0345678"}], "text": "降血脂藥3"}, "subject": {"reference": "Patient/poly-patient-003"}, "encounter": {"reference": "Encounter/poly-encounter-003"}, "authoredOn": "2025-10-12", "dispenseRequest": {"quantity": {"value": 28}}}},
    {"resource": {"resourceType": "MedicationRequest", "id": "poly-med-003-04", "status": "completed", "intent": "order", "medicationCodeableConcept": {"coding": [{"system": "http://www.nhi.gov.tw/drugs", "code": "C0456789"}], "text": "胃藥3"}, "subject": {"reference": "Patient/poly-patient-003"}, "encounter": {"reference": "Encounter/poly-encounter-003"}, "authoredOn": "2025-10-12", "dispenseRequest": {"quantity": {"value": 28}}}},
    {"resource": {"resourceType": "MedicationRequest", "id": "poly-med-003-05", "status": "completed", "intent": "order", "medicationCodeableConcept": {"coding": [{"system": "http://www.nhi.gov.tw/drugs", "code": "C0567890"}], "text": "止痛藥3"}, "subject": {"reference": "Patient/poly-patient-003"}, "encounter": {"reference": "Encounter/poly-encounter-003"}, "authoredOn": "2025-10-12", "dispenseRequest": {"quantity": {"value": 28}}}},
    {"resource": {"resourceType": "MedicationRequest", "id": "poly-med-003-06", "status": "completed", "intent": "order", "medicationCodeableConcept": {"coding": [{"system": "http://www.nhi.gov.tw/drugs", "code": "C0678901"}], "text": "維生素B3"}, "subject": {"reference": "Patient/poly-patient-003"}, "encounter": {"reference": "Encounter/poly-encounter-003"}, "authoredOn": "2025-10-12", "dispenseRequest": {"quantity": {"value": 28}}}},
    {"resource": {"resourceType": "MedicationRequest", "id": "poly-med-003-07", "status": "completed", "intent": "order", "medicationCodeableConcept": {"coding": [{"system": "http://www.nhi.gov.tw/drugs", "code": "C0789012"}], "text": "鈣片3"}, "subject": {"reference": "Patient/poly-patient-003"}, "encounter": {"reference": "Encounter/poly-encounter-003"}, "authoredOn": "2025-10-12", "dispenseRequest": {"quantity": {"value": 28}}}},
    {"resource": {"resourceType": "MedicationRequest", "id": "poly-med-003-08", "status": "completed", "intent": "order", "medicationCodeableConcept": {"coding": [{"system": "http://www.nhi.gov.tw/drugs", "code": "C0890123"}], "text": "抗凝血藥3"}, "subject": {"reference": "Patient/poly-patient-003"}, "encounter": {"reference": "Encounter/poly-encounter-003"}, "authoredOn": "2025-10-12", "dispenseRequest": {"quantity": {"value": 28}}}},
    {"resource": {"resourceType": "MedicationRequest", "id": "poly-med-003-09", "status": "completed", "intent": "order", "medicationCodeableConcept": {"coding": [{"system": "http://www.nhi.gov.tw/drugs", "code": "C0901234"}], "text": "利尿劑3"}, "subject": {"reference": "Patient/poly-patient-003"}, "encounter": {"reference": "Encounter/poly-encounter-003"}, "authoredOn": "2025-10-12", "dispenseRequest": {"quantity": {"value": 28}}}},
    {"resource": {"resourceType": "MedicationRequest", "id": "poly-med-003-10", "status": "completed", "intent": "order", "medicationCodeableConcept": {"coding": [{"system": "http://www.nhi.gov.tw/drugs", "code": "C1012345"}], "text": "安眠藥3"}, "subject": {"reference": "Patient/poly-patient-003"}, "encounter": {"reference": "Encounter/poly-encounter-003"}, "authoredOn": "2025-10-12", "dispenseRequest": {"quantity": {"value": 28}}}},
    {"resource": {"resourceType": "MedicationRequest", "id": "poly-med-003-11", "status": "completed", "intent": "order", "medicationCodeableConcept": {"coding": [{"system": "http://www.nhi.gov.tw/drugs", "code": "C1123456"}], "text": "消炎藥3"}, "subject": {"reference": "Patient/poly-patient-003"}, "encounter": {"reference": "Encounter/poly-encounter-003"}, "authoredOn": "2025-10-12", "dispenseRequest": {"quantity": {"value": 28}}}},
    {"resource": {"resourceType": "MedicationRequest", "id": "poly-med-003-12", "status": "completed", "intent": "order", "medicationCodeableConcept": {"coding": [{"system": "http://www.nhi.gov.tw/drugs", "code": "C1234567"}], "text": "抗組織胺3"}, "subject": {"reference": "Patient/poly-patient-003"}, "encounter": {"reference": "Encounter/poly-encounter-003"}, "authoredOn": "2025-10-12", "dispenseRequest": {"quantity": {"value": 28}}}},

    {
      "resource": {
        "resourceType": "Patient",
        "id": "poly-patient-004",
        "active": true,
        "identifier": [{"system": "http://www.cgmh.org.tw/patient-id", "value": "P004567890"}],
        "name": [{"family": "陳", "given": ["美珠"]}],
        "gender": "female",
        "birthDate": "1970-04-18"
      }
    },
    {
      "resource": {
        "resourceType": "Encounter",
        "id": "poly-encounter-004",
        "status": "finished",
        "class": {"system": "http://terminology.hl7.org/CodeSystem/v3-ActCode", "code": "AMB", "display": "ambulatory"},
        "subject": {"reference": "Patient/poly-patient-004"},
        "period": {"start": "2025-10-15T15:30:00+08:00", "end": "2025-10-15T16:00:00+08:00"}
      }
    },
    {"resource": {"resourceType": "MedicationRequest", "id": "poly-med-004-01", "status": "completed", "intent": "order", "medicationCodeableConcept": {"coding": [{"system": "http://www.nhi.gov.tw/drugs", "code": "D0123456"}], "text": "降血壓藥4"}, "subject": {"reference": "Patient/poly-patient-004"}, "encounter": {"reference": "Encounter/poly-encounter-004"}, "authoredOn": "2025-10-15", "dispenseRequest": {"quantity": {"value": 30}}}},
    {"resource": {"resourceType": "MedicationRequest", "id": "poly-med-004-02", "status": "completed", "intent": "order", "medicationCodeableConcept": {"coding": [{"system": "http://www.nhi.gov.tw/drugs", "code": "D0234567"}], "text": "降血糖藥4"}, "subject": {"reference": "Patient/poly-patient-004"}, "encounter": {"reference": "Encounter/poly-encounter-004"}, "authoredOn": "2025-10-15", "dispenseRequest": {"quantity": {"value": 30}}}},
    {"resource": {"resourceType": "MedicationRequest", "id": "poly-med-004-03", "status": "completed", "intent": "order", "medicationCodeableConcept": {"coding": [{"system": "http://www.nhi.gov.tw/drugs", "code": "D0345678"}], "text": "降血脂藥4"}, "subject": {"reference": "Patient/poly-patient-004"}, "encounter": {"reference": "Encounter/poly-encounter-004"}, "authoredOn": "2025-10-15", "dispenseRequest": {"quantity": {"value": 30}}}},
    {"resource": {"resourceType": "MedicationRequest", "id": "poly-med-004-04", "status": "completed", "intent": "order", "medicationCodeableConcept": {"coding": [{"system": "http://www.nhi.gov.tw/drugs", "code": "D0456789"}], "text": "胃藥4"}, "subject": {"reference": "Patient/poly-patient-004"}, "encounter": {"reference": "Encounter/poly-encounter-004"}, "authoredOn": "2025-10-15", "dispenseRequest": {"quantity": {"value": 30}}}},
    {"resource": {"resourceType": "MedicationRequest", "id": "poly-med-004-05", "status": "completed", "intent": "order", "medicationCodeableConcept": {"coding": [{"system": "http://www.nhi.gov.tw/drugs", "code": "D0567890"}], "text": "止痛藥4"}, "subject": {"reference": "Patient/poly-patient-004"}, "encounter": {"reference": "Encounter/poly-encounter-004"}, "authoredOn": "2025-10-15", "dispenseRequest": {"quantity": {"value": 30}}}},
    {"resource": {"resourceType": "MedicationRequest", "id": "poly-med-004-06", "status": "completed", "intent": "order", "medicationCodeableConcept": {"coding": [{"system": "http://www.nhi.gov.tw/drugs", "code": "D0678901"}], "text": "維生素B4"}, "subject": {"reference": "Patient/poly-patient-004"}, "encounter": {"reference": "Encounter/poly-encounter-004"}, "authoredOn": "2025-10-15", "dispenseRequest": {"quantity": {"value": 30}}}},
    {"resource": {"resourceType": "MedicationRequest", "id": "poly-med-004-07", "status": "completed", "intent": "order", "medicationCodeableConcept": {"coding": [{"system": "http://www.nhi.gov.tw/drugs", "code": "D0789012"}], "text": "鈣片4"}, "subject": {"reference": "Patient/poly-patient-004"}, "encounter": {"reference": "Encounter/poly-encounter-004"}, "authoredOn": "2025-10-15", "dispenseRequest": {"quantity": {"value": 30}}}},
    {"resource": {"resourceType": "MedicationRequest", "id": "poly-med-004-08", "status": "completed", "intent": "order", "medicationCodeableConcept": {"coding": [{"system": "http://www.nhi.gov.tw/drugs", "code": "D0890123"}], "text": "抗凝血藥4"}, "subject": {"reference": "Patient/poly-patient-004"}, "encounter": {"reference": "Encounter/poly-encounter-004"}, "authoredOn": "2025-10-15", "dispenseRequest": {"quantity": {"value": 30}}}},
    {"resource": {"resourceType": "MedicationRequest", "id": "poly-med-004-09", "status": "completed", "intent": "order", "medicationCodeableConcept": {"coding": [{"system": "http://www.nhi.gov.tw/drugs", "code": "D0901234"}], "text": "利尿劑4"}, "subject": {"reference": "Patient/poly-patient-004"}, "encounter": {"reference": "Encounter/poly-encounter-004"}, "authoredOn": "2025-10-15", "dispenseRequest": {"quantity": {"value": 30}}}},
    {"resource": {"resourceType": "MedicationRequest", "id": "poly-med-004-10", "status": "completed", "intent": "order", "medicationCodeableConcept": {"coding": [{"system": "http://www.nhi.gov.tw/drugs", "code": "D1012345"}], "text": "安眠藥4"}, "subject": {"reference": "Patient/poly-patient-004"}, "encounter": {"reference": "Encounter/poly-encounter-004"}, "authoredOn": "2025-10-15", "dispenseRequest": {"quantity": {"value": 30}}}}
  ]
}
