{
  "resourceType": "Bundle",
  "type": "collection",
  "entry": [
    {
      "resource": {
        "resourceType": "Patient",
        "id": "poly-patient-001",
        "active": true,
        "identifier": [{"system": "http://www.cgmh.org.tw/patient-id", "value": "P001234567"}],
        "name": [{"family": "Wang", "given": ["Ming"]}],
        "gender": "male",
        "birthDate": "1955-03-10"
      }
    },
    {
      "resource": {
        "resourceType": "Encounter",
        "id": "poly-encounter-001",
        "status": "finished",
        "class": {"system": "http://terminology.hl7.org/CodeSystem/v3-ActCode", "code": "AMB", "display": "ambulatory"},
        "subject": {"reference": "Patient/poly-patient-001"},
        "period": {"start": "2025-10-05T09:00:00+08:00", "end": "2025-10-05T09:30:00+08:00"}
      }
    },
    {
      "resource": {
        "resourceType": "MedicationRequest",
        "id": "poly-med-001-01",
        "status": "completed",
        "intent": "order",
        "medicationCodeableConcept": {
          "coding": [{"system": "http://www.whocc.no/atc", "code": "A012345678"}],
          "text": "Antihypertensive"
        },
        "subject": {"reference": "Patient/poly-patient-001"},
        "encounter": {"reference": "Encounter/poly-encounter-001"},
        "authoredOn": "2025-10-05",
        "dispenseRequest": {
          "expectedSupplyDuration": {
            "value": 30,
            "unit": "days",
            "system": "http://unitsofmeasure.org",
            "code": "d"
          }
        }
      }
    },
    {
      "resource": {
        "resourceType": "MedicationRequest",
        "id": "poly-med-001-02",
        "status": "completed",
        "intent": "order",
        "medicationCodeableConcept": {
          "coding": [{"system": "http://www.whocc.no/atc", "code": "B023456789"}],
          "text": "Antidiabetic"
        },
        "subject": {"reference": "Patient/poly-patient-001"},
        "encounter": {"reference": "Encounter/poly-encounter-001"},
        "authoredOn": "2025-10-05",
        "dispenseRequest": {
          "expectedSupplyDuration": {
            "value": 30,
            "unit": "days",
            "system": "http://unitsofmeasure.org",
            "code": "d"
          }
        }
      }
    },
    {
      "resource": {
        "resourceType": "MedicationRequest",
        "id": "poly-med-001-03",
        "status": "completed",
        "intent": "order",
        "medicationCodeableConcept": {
          "coding": [{"system": "http://www.whocc.no/atc", "code": "C034567890"}],
          "text": "Lipid-lowering"
        },
        "subject": {"reference": "Patient/poly-patient-001"},
        "encounter": {"reference": "Encounter/poly-encounter-001"},
        "authoredOn": "2025-10-05",
        "dispenseRequest": {
          "expectedSupplyDuration": {
            "value": 30,
            "unit": "days",
            "system": "http://unitsofmeasure.org",
            "code": "d"
          }
        }
      }
    },
    {
      "resource": {
        "resourceType": "MedicationRequest",
        "id": "poly-med-001-04",
        "status": "completed",
        "intent": "order",
        "medicationCodeableConcept": {
          "coding": [{"system": "http://www.whocc.no/atc", "code": "D045678901"}],
          "text": "Gastric"
        },
        "subject": {"reference": "Patient/poly-patient-001"},
        "encounter": {"reference": "Encounter/poly-encounter-001"},
        "authoredOn": "2025-10-05",
        "dispenseRequest": {
          "expectedSupplyDuration": {
            "value": 30,
            "unit": "days",
            "system": "http://unitsofmeasure.org",
            "code": "d"
          }
        }
      }
    },
    {
      "resource": {
        "resourceType": "MedicationRequest",
        "id": "poly-med-001-05",
        "status": "completed",
        "intent": "order",
        "medicationCodeableConcept": {
          "coding": [{"system": "http://www.whocc.no/atc", "code": "E056789012"}],
          "text": "Analgesic"
        },
        "subject": {"reference": "Patient/poly-patient-001"},
        "encounter": {"reference": "Encounter/poly-encounter-001"},
        "authoredOn": "2025-10-05",
        "dispenseRequest": {
          "expectedSupplyDuration": {
            "value": 30,
            "unit": "days",
            "system": "http://unitsofmeasure.org",
            "code": "d"
          }
        }
      }
    },
    {
      "resource": {
        "resourceType": "MedicationRequest",
        "id": "poly-med-001-06",
        "status": "completed",
        "intent": "order",
        "medicationCodeableConcept": {
          "coding": [{"system": "http://www.whocc.no/atc", "code": "F067890123"}],
          "text": "Vitamin B"
        },
        "subject": {"reference": "Patient/poly-patient-001"},
        "encounter": {"reference": "Encounter/poly-encounter-001"},
        "authoredOn": "2025-10-05",
        "dispenseRequest": {
          "expectedSupplyDuration": {
            "value": 30,
            "unit": "days",
            "system": "http://unitsofmeasure.org",
            "code": "d"
          }
        }
      }
    },
    {
      "resource": {
        "resourceType": "MedicationRequest",
        "id": "poly-med-001-07",
        "status": "completed",
        "intent": "order",
        "medicationCodeableConcept": {
          "coding": [{"system": "http://www.whocc.no/atc", "code": "G078901234"}],
          "text": "Calcium"
        },
        "subject": {"reference": "Patient/poly-patient-001"},
        "encounter": {"reference": "Encounter/poly-encounter-001"},
        "authoredOn": "2025-10-05",
        "dispenseRequest": {
          "expectedSupplyDuration": {
            "value": 30,
            "unit": "days",
            "system": "http://unitsofmeasure.org",
            "code": "d"
          }
        }
      }
    },
    {
      "resource": {
        "resourceType": "MedicationRequest",
        "id": "poly-med-001-08",
        "status": "completed",
        "intent": "order",
        "medicationCodeableConcept": {
          "coding": [{"system": "http://www.whocc.no/atc", "code": "H089012345"}],
          "text": "Anticoagulant"
        },
        "subject": {"reference": "Patient/poly-patient-001"},
        "encounter": {"reference": "Encounter/poly-encounter-001"},
        "authoredOn": "2025-10-05",
        "dispenseRequest": {
          "expectedSupplyDuration": {
            "value": 30,
            "unit": "days",
            "system": "http://unitsofmeasure.org",
            "code": "d"
          }
        }
      }
    },
    {
      "resource": {
        "resourceType": "MedicationRequest",
        "id": "poly-med-001-09",
        "status": "completed",
        "intent": "order",
        "medicationCodeableConcept": {
          "coding": [{"system": "http://www.whocc.no/atc", "code": "I090123456"}],
          "text": "Diuretic"
        },
        "subject": {"reference": "Patient/poly-patient-001"},
        "encounter": {"reference": "Encounter/poly-encounter-001"},
        "authoredOn": "2025-10-05",
        "dispenseRequest": {
          "expectedSupplyDuration": {
            "value": 30,
            "unit": "days",
            "system": "http://unitsofmeasure.org",
            "code": "d"
          }
        }
      }
    },
    {
      "resource": {
        "resourceType": "MedicationRequest",
        "id": "poly-med-001-10",
        "status": "completed",
        "intent": "order",
        "medicationCodeableConcept": {
          "coding": [{"system": "http://www.whocc.no/atc", "code": "J001234567"}],
          "text": "Hypnotic"
        },
        "subject": {"reference": "Patient/poly-patient-001"},
        "encounter": {"reference": "Encounter/poly-encounter-001"},
        "authoredOn": "2025-10-05",
        "dispenseRequest": {
          "expectedSupplyDuration": {
            "value": 30,
            "unit": "days",
            "system": "http://unitsofmeasure.org",
            "code": "d"
          }
        }
      }
    }
  ]
}
