{
  "resourceType": "Bundle",
  "type": "transaction",
  "entry": [
    {
      "resource": {
        "resourceType": "Patient",
        "id": "TW00000",
        "identifier": [
          {
            "system": "urn:oid:2.16.886.101.20003.20001",
            "value": "TW00000"
          }
        ],
        "name": [
          {
            "family": "洪",
            "given": [
              "宥廷"
            ],
            "text": "洪宥廷"
          }
        ],
        "gender": "male",
        "birthDate": "2011-02-14",
        "address": [
          {
            "city": "新竹縣",
            "country": "TW"
          }
        ]
      },
      "request": {
        "method": "PUT",
        "url": "Patient/TW00000"
      }
    },
    {
      "resource": {
        "resourceType": "Patient",
        "id": "TW00001",
        "identifier": [
          {
            "system": "urn:oid:2.16.886.101.20003.20001",
            "value": "TW00001"
          }
        ],
        "name": [
          {
            "family": "邱",
            "given": [
              "柏翰"
            ],
            "text": "邱柏翰"
          }
        ],
        "gender": "male",
        "birthDate": "1948-12-27",
        "address": [
          {
            "city": "新竹市",
            "country": "TW"
          }
        ]
      },
      "request": {
        "method": "PUT",
        "url": "Patient/TW00001"
      }
    },
    {
      "resource": {
        "resourceType": "Patient",
        "id": "TW00002",
        "identifier": [
          {
            "system": "urn:oid:2.16.886.101.20003.20001",
            "value": "TW00002"
          }
        ],
        "name": [
          {
            "family": "王",
            "given": [
              "語彤"
            ],
            "text": "王語彤"
          }
        ],
        "gender": "female",
        "birthDate": "1982-10-09",
        "address": [
          {
            "city": "高雄市",
            "country": "TW"
          }
        ]
      },
      "request": {
        "method": "PUT",
        "url": "Patient/TW00002"
      }
    },
    {
      "resource": {
        "resourceType": "Patient",
        "id": "TW00003",
        "identifier": [
          {
            "system": "urn:oid:2.16.886.101.20003.20001",
            "value": "TW00003"
          }
        ],
        "name": [
          {
            "family": "曾",
            "given": [
              "欣怡"
            ],
            "text": "曾欣怡"
          }
        ],
        "gender": "female",
        "birthDate": "1972-10-26",
        "address": [
          {
            "city": "高雄市",
            "country": "TW"
          }
        ]
      },
      "request": {
        "method": "PUT",
        "url": "Patient/TW00003"
      }
    },
    {
      "resource": {
        "resourceType": "Patient",
        "id": "TW00004",
        "identifier": [
          {
            "system": "urn:oid:2.16.886.101.20003.20001",
            "value": "TW00004"
          }
        ],
        "name": [
          {
            "family": "許",
            "given": [
              "家豪"
            ],
            "text": "許家豪"
          }
        ],
        "gender": "male",
        "birthDate": "1989-02-09",
        "address": [
          {
            "city": "嘉義縣",
            "country": "TW"
          }
        ]
      },
      "request": {
        "method": "PUT",
        "url": "Patient/TW00004"
      }
    },
    {
      "resource": {
        "resourceType": "Patient",
        "id": "TW00005",
        "identifier": [
          {
            "system": "urn:oid:2.16.886.101.20003.20001",
            "value": "TW00005"
          }
        ],
        "name": [
          {
            "family": "鄭",
            "given": [
              "宥廷"
            ],
            "text": "鄭宥廷"
          }
        ],
        "gender": "male",
        "birthDate": "1999-04-10",
        "address": [
          {
            "city": "台北市",
            "country": "TW"
          }
        ]
      },
      "request": {
        "method": "PUT",
        "url": "Patient/TW00005"
      }
    },
    {
      "resource": {
        "resourceType": "Patient",
        "id": "TW00006",
        "identifier": [
          {
            "system": "urn:oid:2.16.886.101.20003.20001",
            "value": "TW00006"
          }
        ],
        "name": [
          {
            "family": "洪",
            "given": [
              "柏翰"
            ],
            "text": "洪柏翰"
          }
        ],
        "gender": "male",
        "birthDate": "2006-08-22",
        "address": [
          {
            "city": "澎湖縣",
            "country": "TW"
          }
        ]
      },
      "request": {
        "method": "PUT",
        "url": "Patient/TW00006"
      }
    },
    {
      "resource": {
        "resourceType": "Patient",
        "id": "TW00007",
        "identifier": [
          {
            "system": "urn:oid:2.16.886.101.20003.20001",
            "value": "TW00007"
          }
        ],
        "name": [
          {
            "family": "林",
            "given": [
              "雅筠"
            ],
            "text": "林雅筠"
          }
        ],
        "gender": "female",
        "birthDate": "1968-04-06",
        "address": [
          {
            "city": "雲林縣",
            "country": "TW"
          }
        ]
      },
      "request": {
        "method": "PUT",
        "url": "Patient/TW00007"
      }
    },
    {
      "resource": {
        "resourceType": "Patient",
        "id": "TW00008",
        "identifier": [
          {
            "system": "urn:oid:2.16.886.101.20003.20001",
            "value": "TW00008"
          }
        ],
        "name": [
          {
            "family": "賴",
            "given": [
              "雅婷"
            ],
            "text": "賴雅婷"
          }
        ],
        "gender": "female",
        "birthDate": "2014-02-17",
        "address": [
          {
            "city": "台東縣",
            "country": "TW"
          }
        ]
      },
      "request": {
        "method": "PUT",
        "url": "Patient/TW00008"
      }
    },
    {
      "resource": {
        "resourceType": "Patient",
        "id": "TW00009",
        "identifier": [
          {
            "system": "urn:oid:2.16.886.101.20003.20001",
            "value": "TW00009"
          }
        ],
        "name": [
          {
            "family": "黃",
            "given": [
              "宇軒"
            ],
            "text": "黃宇軒"
          }
        ],
        "gender": "male",
        "birthDate": "1964-02-21",
        "address": [
          {
            "city": "新竹市",
            "country": "TW"
          }
        ]
      },
      "request": {
        "method": "PUT",
        "url": "Patient/TW00009"
      }
    },
    {
      "resource": {
        "resourceType": "Patient",
        "id": "TW00010",
        "identifier": [
          {
            "system": "urn:oid:2.16.886.101.20003.20001",
            "value": "TW00010"
          }
        ],
        "name": [
          {
            "family": "蔡",
            "given": [
              "彥碩"
            ],
            "text": "蔡彥碩"
          }
        ],
        "gender": "male",
        "birthDate": "1956-07-24",
        "address": [
          {
            "city": "桃園市",
            "country": "TW"
          }
        ]
      },
      "request": {
        "method": "PUT",
        "url": "Patient/TW00010"
      }
    },
    {
      "resource": {
        "resourceType": "Patient",
        "id": "TW00011",
        "identifier": [
          {
            "system": "urn:oid:2.16.886.101.20003.20001",
            "value": "TW00011"
          }
        ],
        "name": [
          {
            "family": "許",
            "given": [
              "欣怡"
            ],
            "text": "許欣怡"
          }
        ],
        "gender": "female",
        "birthDate": "2007-11-16",
        "address": [
          {
            "city": "苗栗縣",
            "country": "TW"
          }
        ]
      },
      "request": {
        "method": "PUT",
        "url": "Patient/TW00011"
      }
    },
    {
      "resource": {
        "resourceType": "Patient",
        "id": "TW00012",
        "identifier": [
          {
            "system": "urn:oid:2.16.886.101.20003.20001",
            "value": "TW00012"
          }
        ],
        "name": [
          {
            "family": "邱",
            "given": [
              "秉翰"
            ],
            "text": "邱秉翰"
          }
        ],
        "gender": "male",
        "birthDate": "2011-02-25",
        "address": [
          {
            "city": "新竹縣",
            "country": "TW"
          }
        ]
      },
      "request": {
        "method": "PUT",
        "url": "Patient/TW00012"
      }
    },
    {
      "resource": {
        "resourceType": "Patient",
        "id": "TW00013",
        "identifier": [
          {
            "system": "urn:oid:2.16.886.101.20003.20001",
            "value": "TW00013"
          }
        ],
        "name": [
          {
            "family": "陳",
            "given": [
              "彥碩"
            ],
            "text": "陳彥碩"
          }
        ],
        "gender": "male",
        "birthDate": "1967-11-07",
        "address": [
          {
            "city": "屏東縣",
            "country": "TW"
          }
        ]
      },
      "request": {
        "method": "PUT",
        "url": "Patient/TW00013"
      }
    },
    {
      "resource": {
        "resourceType": "Patient",
        "id": "TW00014",
        "identifier": [
          {
            "system": "urn:oid:2.16.886.101.20003.20001",
            "value": "TW00014"
          }
        ],
        "name": [
          {
            "family": "陳",
            "given": [
              "語彤"
            ],
            "text": "陳語彤"
          }
        ],
        "gender": "female",
        "birthDate": "1981-03-08",
        "address": [
          {
            "city": "花蓮縣",
            "country": "TW"
          }
        ]
      },
      "request": {
        "method": "PUT",
        "url": "Patient/TW00014"
      }
    },
    {
      "resource": {
        "resourceType": "Patient",
        "id": "TW00015",
        "identifier": [
          {
            "system": "urn:oid:2.16.886.101.20003.20001",
            "value": "TW00015"
          }
        ],
        "name": [
          {
            "family": "蔡",
            "given": [
              "承翰"
            ],
            "text": "蔡承翰"
          }
        ],
        "gender": "male",
        "birthDate": "2004-11-22",
        "address": [
          {
            "city": "金門縣",
            "country": "TW"
          }
        ]
      },
      "request": {
        "method": "PUT",
        "url": "Patient/TW00015"
      }
    },
    {
      "resource": {
        "resourceType": "Patient",
        "id": "TW00016",
        "identifier": [
          {
            "system": "urn:oid:2.16.886.101.20003.20001",
            "value": "TW00016"
          }
        ],
        "name": [
          {
            "family": "許",
            "given": [
              "冠霖"
            ],
            "text": "許冠霖"
          }
        ],
        "gender": "male",
        "birthDate": "1972-03-04",
        "address": [
          {
            "city": "金門縣",
            "country": "TW"
          }
        ]
      },
      "request": {
        "method": "PUT",
        "url": "Patient/TW00016"
      }
    },
    {
      "resource": {
        "resourceType": "Patient",
        "id": "TW00017",
        "identifier": [
          {
            "system": "urn:oid:2.16.886.101.20003.20001",
            "value": "TW00017"
          }
        ],
        "name": [
          {
            "family": "李",
            "given": [
              "詩涵"
            ],
            "text": "李詩涵"
          }
        ],
        "gender": "female",
        "birthDate": "1986-02-08",
        "address": [
          {
            "city": "雲林縣",
            "country": "TW"
          }
        ]
      },
      "request": {
        "method": "PUT",
        "url": "Patient/TW00017"
      }
    },
    {
      "resource": {
        "resourceType": "Patient",
        "id": "TW00018",
        "identifier": [
          {
            "system": "urn:oid:2.16.886.101.20003.20001",
            "value": "TW00018"
          }
        ],
        "name": [
          {
            "family": "陳",
            "given": [
              "哲瑋"
            ],
            "text": "陳哲瑋"
          }
        ],
        "gender": "male",
        "birthDate": "2010-06-03",
        "address": [
          {
            "city": "南投縣",
            "country": "TW"
          }
        ]
      },
      "request": {
        "method": "PUT",
        "url": "Patient/TW00018"
      }
    },
    {
      "resource": {
        "resourceType": "Patient",
        "id": "TW00019",
        "identifier": [
          {
            "system": "urn:oid:2.16.886.101.20003.20001",
            "value": "TW00019"
          }
        ],
        "name": [
          {
            "family": "郭",
            "given": [
              "承翰"
            ],
            "text": "郭承翰"
          }
        ],
        "gender": "male",
        "birthDate": "1997-04-02",
        "address": [
          {
            "city": "澎湖縣",
            "country": "TW"
          }
        ]
      },
      "request": {
        "method": "PUT",
        "url": "Patient/TW00019"
      }
    },
    {
      "resource": {
        "resourceType": "Patient",
        "id": "TW00020",
        "identifier": [
          {
            "system": "urn:oid:2.16.886.101.20003.20001",
            "value": "TW00020"
          }
        ],
        "name": [
          {
            "family": "吳",
            "given": [
              "彥碩"
            ],
            "text": "吳彥碩"
          }
        ],
        "gender": "male",
        "birthDate": "1947-06-01",
        "address": [
          {
            "city": "新竹縣",
            "country": "TW"
          }
        ]
      },
      "request": {
        "method": "PUT",
        "url": "Patient/TW00020"
      }
    },
    {
      "resource": {
        "resourceType": "Patient",
        "id": "TW00021",
        "identifier": [
          {
            "system": "urn:oid:2.16.886.101.20003.20001",
            "value": "TW00021"
          }
        ],
        "name": [
          {
            "family": "林",
            "given": [
              "家豪"
            ],
            "text": "林家豪"
          }
        ],
        "gender": "male",
        "birthDate": "1994-11-19",
        "address": [
          {
            "city": "新北市",
            "country": "TW"
          }
        ]
      },
      "request": {
        "method": "PUT",
        "url": "Patient/TW00021"
      }
    },
    {
      "resource": {
        "resourceType": "Patient",
        "id": "TW00022",
        "identifier": [
          {
            "system": "urn:oid:2.16.886.101.20003.20001",
            "value": "TW00022"
          }
        ],
        "name": [
          {
            "family": "張",
            "given": [
              "宥廷"
            ],
            "text": "張宥廷"
          }
        ],
        "gender": "male",
        "birthDate": "1971-07-04",
        "address": [
          {
            "city": "台北市",
            "country": "TW"
          }
        ]
      },
      "request": {
        "method": "PUT",
        "url": "Patient/TW00022"
      }
    },
    {
      "resource": {
        "resourceType": "Patient",
        "id": "TW00023",
        "identifier": [
          {
            "system": "urn:oid:2.16.886.101.20003.20001",
            "value": "TW00023"
          }
        ],
        "name": [
          {
            "family": "許",
            "given": [
              "承翰"
            ],
            "text": "許承翰"
          }
        ],
        "gender": "male",
        "birthDate": "1967-05-26",
        "address": [
          {
            "city": "屏東縣",
            "country": "TW"
          }
        ]
      },
      "request": {
        "method": "PUT",
        "url": "Patient/TW00023"
      }
    },
    {
      "resource": {
        "resourceType": "Patient",
        "id": "TW00024",
        "identifier": [
          {
            "system": "urn:oid:2.16.886.101.20003.20001",
            "value": "TW00024"
          }
        ],
        "name": [
          {
            "family": "林",
            "given": [
              "宜庭"
            ],
            "text": "林宜庭"
          }
        ],
        "gender": "female",
        "birthDate": "1968-08-16",
        "address": [
          {
            "city": "嘉義市",
            "country": "TW"
          }
        ]
      },
      "request": {
        "method": "PUT",
        "url": "Patient/TW00024"
      }
    },
    {
      "resource": {
        "resourceType": "Patient",
        "id": "TW00025",
        "identifier": [
          {
            "system": "urn:oid:2.16.886.101.20003.20001",
            "value": "TW00025"
          }
        ],
        "name": [
          {
            "family": "廖",
            "given": [
              "宇軒"
            ],
            "text": "廖宇軒"
          }
        ],
        "gender": "male",
        "birthDate": "1987-03-09",
        "address": [
          {
            "city": "嘉義市",
            "country": "TW"
          }
        ]
      },
      "request": {
        "method": "PUT",
        "url": "Patient/TW00025"
      }
    },
    {
      "resource": {
        "resourceType": "Patient",
        "id": "TW00026",
        "identifier": [
          {
            "system": "urn:oid:2.16.886.101.20003.20001",
            "value": "TW00026"
          }
        ],
        "name": [
          {
            "family": "林",
            "given": [
              "欣妤"
            ],
            "text": "林欣妤"
          }
        ],
        "gender": "female",
        "birthDate": "1958-08-24",
        "address": [
          {
            "city": "嘉義縣",
            "country": "TW"
          }
        ]
      },
      "request": {
        "method": "PUT",
        "url": "Patient/TW00026"
      }
    },
    {
      "resource": {
        "resourceType": "Patient",
        "id": "TW00027",
        "identifier": [
          {
            "system": "urn:oid:2.16.886.101.20003.20001",
            "value": "TW00027"
          }
        ],
        "name": [
          {
            "family": "蔡",
            "given": [
              "思妤"
            ],
            "text": "蔡思妤"
          }
        ],
        "gender": "female",
        "birthDate": "1945-10-29",
        "address": [
          {
            "city": "高雄市",
            "country": "TW"
          }
        ]
      },
      "request": {
        "method": "PUT",
        "url": "Patient/TW00027"
      }
    },
    {
      "resource": {
        "resourceType": "Patient",
        "id": "TW00028",
        "identifier": [
          {
            "system": "urn:oid:2.16.886.101.20003.20001",
            "value": "TW00028"
          }
        ],
        "name": [
          {
            "family": "許",
            "given": [
              "冠廷"
            ],
            "text": "許冠廷"
          }
        ],
        "gender": "male",
        "birthDate": "1948-02-20",
        "address": [
          {
            "city": "嘉義市",
            "country": "TW"
          }
        ]
      },
      "request": {
        "method": "PUT",
        "url": "Patient/TW00028"
      }
    },
    {
      "resource": {
        "resourceType": "Patient",
        "id": "TW00029",
        "identifier": [
          {
            "system": "urn:oid:2.16.886.101.20003.20001",
            "value": "TW00029"
          }
        ],
        "name": [
          {
            "family": "林",
            "given": [
              "冠廷"
            ],
            "text": "林冠廷"
          }
        ],
        "gender": "male",
        "birthDate": "2010-12-11",
        "address": [
          {
            "city": "台北市",
            "country": "TW"
          }
        ]
      },
      "request": {
        "method": "PUT",
        "url": "Patient/TW00029"
      }
    },
    {
      "resource": {
        "resourceType": "Patient",
        "id": "TW00030",
        "identifier": [
          {
            "system": "urn:oid:2.16.886.101.20003.20001",
            "value": "TW00030"
          }
        ],
        "name": [
          {
            "family": "張",
            "given": [
              "雅筠"
            ],
            "text": "張雅筠"
          }
        ],
        "gender": "female",
        "birthDate": "1982-10-18",
        "address": [
          {
            "city": "花蓮縣",
            "country": "TW"
          }
        ]
      },
      "request": {
        "method": "PUT",
        "url": "Patient/TW00030"
      }
    },
    {
      "resource": {
        "resourceType": "Patient",
        "id": "TW00031",
        "identifier": [
          {
            "system": "urn:oid:2.16.886.101.20003.20001",
            "value": "TW00031"
          }
        ],
        "name": [
          {
            "family": "邱",
            "given": [
              "承翰"
            ],
            "text": "邱承翰"
          }
        ],
        "gender": "male",
        "birthDate": "1962-06-21",
        "address": [
          {
            "city": "苗栗縣",
            "country": "TW"
          }
        ]
      },
      "request": {
        "method": "PUT",
        "url": "Patient/TW00031"
      }
    },
    {
      "resource": {
        "resourceType": "Patient",
        "id": "TW00032",
        "identifier": [
          {
            "system": "urn:oid:2.16.886.101.20003.20001",
            "value": "TW00032"
          }
        ],
        "name": [
          {
            "family": "賴",
            "given": [
              "欣妤"
            ],
            "text": "賴欣妤"
          }
        ],
        "gender": "female",
        "birthDate": "1956-02-19",
        "address": [
          {
            "city": "宜蘭縣",
            "country": "TW"
          }
        ]
      },
      "request": {
        "method": "PUT",
        "url": "Patient/TW00032"
      }
    },
    {
      "resource": {
        "resourceType": "Patient",
        "id": "TW00033",
        "identifier": [
          {
            "system": "urn:oid:2.16.886.101.20003.20001",
            "value": "TW00033"
          }
        ],
        "name": [
          {
            "family": "黃",
            "given": [
              "志明"
            ],
            "text": "黃志明"
          }
        ],
        "gender": "male",
        "birthDate": "1952-04-13",
        "address": [
          {
            "city": "南投縣",
            "country": "TW"
          }
        ]
      },
      "request": {
        "method": "PUT",
        "url": "Patient/TW00033"
      }
    },
    {
      "resource": {
        "resourceType": "Patient",
        "id": "TW00034",
        "identifier": [
          {
            "system": "urn:oid:2.16.886.101.20003.20001",
            "value": "TW00034"
          }
        ],
        "name": [
          {
            "family": "林",
            "given": [
              "秉翰"
            ],
            "text": "林秉翰"
          }
        ],
        "gender": "male",
        "birthDate": "1986-11-18",
        "address": [
          {
            "city": "台北市",
            "country": "TW"
          }
        ]
      },
      "request": {
        "method": "PUT",
        "url": "Patient/TW00034"
      }
    },
    {
      "resource": {
        "resourceType": "Patient",
        "id": "TW00035",
        "identifier": [
          {
            "system": "urn:oid:2.16.886.101.20003.20001",
            "value": "TW00035"
          }
        ],
        "name": [
          {
            "family": "謝",
            "given": [
              "宜庭"
            ],
            "text": "謝宜庭"
          }
        ],
        "gender": "female",
        "birthDate": "2007-04-19",
        "address": [
          {
            "city": "雲林縣",
            "country": "TW"
          }
        ]
      },
      "request": {
        "method": "PUT",
        "url": "Patient/TW00035"
      }
    },
    {
      "resource": {
        "resourceType": "Patient",
        "id": "TW00036",
        "identifier": [
          {
            "system": "urn:oid:2.16.886.101.20003.20001",
            "value": "TW00036"
          }
        ],
        "name": [
          {
            "family": "洪",
            "given": [
              "柏翰"
            ],
            "text": "洪柏翰"
          }
        ],
        "gender": "male",
        "birthDate": "1974-01-25",
        "address": [
          {
            "city": "新竹縣",
            "country": "TW"
          }
        ]
      },
      "request": {
        "method": "PUT",
        "url": "Patient/TW00036"
      }
    },
    {
      "resource": {
        "resourceType": "Patient",
        "id": "TW00037",
        "identifier": [
          {
            "system": "urn:oid:2.16.886.101.20003.20001",
            "value": "TW00037"
          }
        ],
        "name": [
          {
            "family": "林",
            "given": [
              "依婷"
            ],
            "text": "林依婷"
          }
        ],
        "gender": "female",
        "birthDate": "1953-09-02",
        "address": [
          {
            "city": "嘉義縣",
            "country": "TW"
          }
        ]
      },
      "request": {
        "method": "PUT",
        "url": "Patient/TW00037"
      }
    },
    {
      "resource": {
        "resourceType": "Patient",
        "id": "TW00038",
        "identifier": [
          {
            "system": "urn:oid:2.16.886.101.20003.20001",
            "value": "TW00038"
          }
        ],
        "name": [
          {
            "family": "邱",
            "given": [
              "哲瑋"
            ],
            "text": "邱哲瑋"
          }
        ],
        "gender": "male",
        "birthDate": "1989-01-29",
        "address": [
          {
            "city": "連江縣",
            "country": "TW"
          }
        ]
      },
      "request": {
        "method": "PUT",
        "url": "Patient/TW00038"
      }
    },
    {
      "resource": {
        "resourceType": "Patient",
        "id": "TW00039",
        "identifier": [
          {
            "system": "urn:oid:2.16.886.101.20003.20001",
            "value": "TW00039"
          }
        ],
        "name": [
          {
            "family": "廖",
            "given": [
              "淑芬"
            ],
            "text": "廖淑芬"
          }
        ],
        "gender": "female",
        "birthDate": "2000-08-15",
        "address": [
          {
            "city": "台中市",
            "country": "TW"
          }
        ]
      },
      "request": {
        "method": "PUT",
        "url": "Patient/TW00039"
      }
    },
    {
      "resource": {
        "resourceType": "Patient",
        "id": "TW00040",
        "identifier": [
          {
            "system": "urn:oid:2.16.886.101.20003.20001",
            "value": "TW00040"
          }
        ],
        "name": [
          {
            "family": "楊",
            "given": [
              "思妤"
            ],
            "text": "楊思妤"
          }
        ],
        "gender": "female",
        "birthDate": "1972-03-20",
        "address": [
          {
            "city": "連江縣",
            "country": "TW"
          }
        ]
      },
      "request": {
        "method": "PUT",
        "url": "Patient/TW00040"
      }
    },
    {
      "resource": {
        "resourceType": "Patient",
        "id": "TW00041",
        "identifier": [
          {
            "system": "urn:oid:2.16.886.101.20003.20001",
            "value": "TW00041"
          }
        ],
        "name": [
          {
            "family": "曾",
            "given": [
              "雅筠"
            ],
            "text": "曾雅筠"
          }
        ],
        "gender": "female",
        "birthDate": "1958-08-07",
        "address": [
          {
            "city": "宜蘭縣",
            "country": "TW"
          }
        ]
      },
      "request": {
        "method": "PUT",
        "url": "Patient/TW00041"
      }
    },
    {
      "resource": {
        "resourceType": "Patient",
        "id": "TW00042",
        "identifier": [
          {
            "system": "urn:oid:2.16.886.101.20003.20001",
            "value": "TW00042"
          }
        ],
        "name": [
          {
            "family": "洪",
            "given": [
              "欣怡"
            ],
            "text": "洪欣怡"
          }
        ],
        "gender": "female",
        "birthDate": "2015-07-07",
        "address": [
          {
            "city": "嘉義市",
            "country": "TW"
          }
        ]
      },
      "request": {
        "method": "PUT",
        "url": "Patient/TW00042"
      }
    },
    {
      "resource": {
        "resourceType": "Patient",
        "id": "TW00043",
        "identifier": [
          {
            "system": "urn:oid:2.16.886.101.20003.20001",
            "value": "TW00043"
          }
        ],
        "name": [
          {
            "family": "劉",
            "given": [
              "筱涵"
            ],
            "text": "劉筱涵"
          }
        ],
        "gender": "female",
        "birthDate": "1981-02-03",
        "address": [
          {
            "city": "金門縣",
            "country": "TW"
          }
        ]
      },
      "request": {
        "method": "PUT",
        "url": "Patient/TW00043"
      }
    },
    {
      "resource": {
        "resourceType": "Patient",
        "id": "TW00044",
        "identifier": [
          {
            "system": "urn:oid:2.16.886.101.20003.20001",
            "value": "TW00044"
          }
        ],
        "name": [
          {
            "family": "黃",
            "given": [
              "冠廷"
            ],
            "text": "黃冠廷"
          }
        ],
        "gender": "male",
        "birthDate": "2007-07-10",
        "address": [
          {
            "city": "高雄市",
            "country": "TW"
          }
        ]
      },
      "request": {
        "method": "PUT",
        "url": "Patient/TW00044"
      }
    },
    {
      "resource": {
        "resourceType": "Patient",
        "id": "TW00045",
        "identifier": [
          {
            "system": "urn:oid:2.16.886.101.20003.20001",
            "value": "TW00045"
          }
        ],
        "name": [
          {
            "family": "蔡",
            "given": [
              "怡婷"
            ],
            "text": "蔡怡婷"
          }
        ],
        "gender": "female",
        "birthDate": "1962-08-09",
        "address": [
          {
            "city": "花蓮縣",
            "country": "TW"
          }
        ]
      },
      "request": {
        "method": "PUT",
        "url": "Patient/TW00045"
      }
    },
    {
      "resource": {
        "resourceType": "Patient",
        "id": "TW00046",
        "identifier": [
          {
            "system": "urn:oid:2.16.886.101.20003.20001",
            "value": "TW00046"
          }
        ],
        "name": [
          {
            "family": "賴",
            "given": [
              "淑芬"
            ],
            "text": "賴淑芬"
          }
        ],
        "gender": "female",
        "birthDate": "1967-11-26",
        "address": [
          {
            "city": "金門縣",
            "country": "TW"
          }
        ]
      },
      "request": {
        "method": "PUT",
        "url": "Patient/TW00046"
      }
    },
    {
      "resource": {
        "resourceType": "Patient",
        "id": "TW00047",
        "identifier": [
          {
            "system": "urn:oid:2.16.886.101.20003.20001",
            "value": "TW00047"
          }
        ],
        "name": [
          {
            "family": "陳",
            "given": [
              "家豪"
            ],
            "text": "陳家豪"
          }
        ],
        "gender": "male",
        "birthDate": "1992-08-10",
        "address": [
          {
            "city": "台中市",
            "country": "TW"
          }
        ]
      },
      "request": {
        "method": "PUT",
        "url": "Patient/TW00047"
      }
    },
    {
      "resource": {
        "resourceType": "Patient",
        "id": "TW00048",
        "identifier": [
          {
            "system": "urn:oid:2.16.886.101.20003.20001",
            "value": "TW00048"
          }
        ],
        "name": [
          {
            "family": "邱",
            "given": [
              "宜庭"
            ],
            "text": "邱宜庭"
          }
        ],
        "gender": "female",
        "birthDate": "1959-03-15",
        "address": [
          {
            "city": "高雄市",
            "country": "TW"
          }
        ]
      },
      "request": {
        "method": "PUT",
        "url": "Patient/TW00048"
      }
    },
    {
      "resource": {
        "resourceType": "Patient",
        "id": "TW00049",
        "identifier": [
          {
            "system": "urn:oid:2.16.886.101.20003.20001",
            "value": "TW00049"
          }
        ],
        "name": [
          {
            "family": "邱",
            "given": [
              "宇軒"
            ],
            "text": "邱宇軒"
          }
        ],
        "gender": "male",
        "birthDate": "1985-02-20",
        "address": [
          {
            "city": "連江縣",
            "country": "TW"
          }
        ]
      },
      "request": {
        "method": "PUT",
        "url": "Patient/TW00049"
      }
    },
    {
      "resource": {
        "resourceType": "Patient",
        "id": "TW00050",
        "identifier": [
          {
            "system": "urn:oid:2.16.886.101.20003.20001",
            "value": "TW00050"
          }
        ],
        "name": [
          {
            "family": "郭",
            "given": [
              "雅婷"
            ],
            "text": "郭雅婷"
          }
        ],
        "gender": "female",
        "birthDate": "1962-10-10",
        "address": [
          {
            "city": "苗栗縣",
            "country": "TW"
          }
        ]
      },
      "request": {
        "method": "PUT",
        "url": "Patient/TW00050"
      }
    },
    {
      "resource": {
        "resourceType": "Patient",
        "id": "TW00051",
        "identifier": [
          {
            "system": "urn:oid:2.16.886.101.20003.20001",
            "value": "TW00051"
          }
        ],
        "name": [
          {
            "family": "洪",
            "given": [
              "宜庭"
            ],
            "text": "洪宜庭"
          }
        ],
        "gender": "female",
        "birthDate": "1949-08-09",
        "address": [
          {
            "city": "基隆市",
            "country": "TW"
          }
        ]
      },
      "request": {
        "method": "PUT",
        "url": "Patient/TW00051"
      }
    },
    {
      "resource": {
        "resourceType": "Patient",
        "id": "TW00052",
        "identifier": [
          {
            "system": "urn:oid:2.16.886.101.20003.20001",
            "value": "TW00052"
          }
        ],
        "name": [
          {
            "family": "陳",
            "given": [
              "欣怡"
            ],
            "text": "陳欣怡"
          }
        ],
        "gender": "female",
        "birthDate": "2009-01-02",
        "address": [
          {
            "city": "屏東縣",
            "country": "TW"
          }
        ]
      },
      "request": {
        "method": "PUT",
        "url": "Patient/TW00052"
      }
    },
    {
      "resource": {
        "resourceType": "Patient",
        "id": "TW00053",
        "identifier": [
          {
            "system": "urn:oid:2.16.886.101.20003.20001",
            "value": "TW00053"
          }
        ],
        "name": [
          {
            "family": "劉",
            "given": [
              "俊傑"
            ],
            "text": "劉俊傑"
          }
        ],
        "gender": "male",
        "birthDate": "1972-06-12",
        "address": [
          {
            "city": "彰化縣",
            "country": "TW"
          }
        ]
      },
      "request": {
        "method": "PUT",
        "url": "Patient/TW00053"
      }
    },
    {
      "resource": {
        "resourceType": "Patient",
        "id": "TW00054",
        "identifier": [
          {
            "system": "urn:oid:2.16.886.101.20003.20001",
            "value": "TW00054"
          }
        ],
        "name": [
          {
            "family": "鄭",
            "given": [
              "欣怡"
            ],
            "text": "鄭欣怡"
          }
        ],
        "gender": "female",
        "birthDate": "1991-12-23",
        "address": [
          {
            "city": "宜蘭縣",
            "country": "TW"
          }
        ]
      },
      "request": {
        "method": "PUT",
        "url": "Patient/TW00054"
      }
    },
    {
      "resource": {
        "resourceType": "Patient",
        "id": "TW00055",
        "identifier": [
          {
            "system": "urn:oid:2.16.886.101.20003.20001",
            "value": "TW00055"
          }
        ],
        "name": [
          {
            "family": "陳",
            "given": [
              "冠廷"
            ],
            "text": "陳冠廷"
          }
        ],
        "gender": "male",
        "birthDate": "1967-08-18",
        "address": [
          {
            "city": "桃園市",
            "country": "TW"
          }
        ]
      },
      "request": {
        "method": "PUT",
        "url": "Patient/TW00055"
      }
    },
    {
      "resource": {
        "resourceType": "Patient",
        "id": "TW00056",
        "identifier": [
          {
            "system": "urn:oid:2.16.886.101.20003.20001",
            "value": "TW00056"
          }
        ],
        "name": [
          {
            "family": "張",
            "given": [
              "家豪"
            ],
            "text": "張家豪"
          }
        ],
        "gender": "male",
        "birthDate": "2004-10-09",
        "address": [
          {
            "city": "南投縣",
            "country": "TW"
          }
        ]
      },
      "request": {
        "method": "PUT",
        "url": "Patient/TW00056"
      }
    },
    {
      "resource": {
        "resourceType": "Patient",
        "id": "TW00057",
        "identifier": [
          {
            "system": "urn:oid:2.16.886.101.20003.20001",
            "value": "TW00057"
          }
        ],
        "name": [
          {
            "family": "謝",
            "given": [
              "家豪"
            ],
            "text": "謝家豪"
          }
        ],
        "gender": "male",
        "birthDate": "1967-02-07",
        "address": [
          {
            "city": "彰化縣",
            "country": "TW"
          }
        ]
      },
      "request": {
        "method": "PUT",
        "url": "Patient/TW00057"
      }
    },
    {
      "resource": {
        "resourceType": "Patient",
        "id": "TW00058",
        "identifier": [
          {
            "system": "urn:oid:2.16.886.101.20003.20001",
            "value": "TW00058"
          }
        ],
        "name": [
          {
            "family": "劉",
            "given": [
              "家豪"
            ],
            "text": "劉家豪"
          }
        ],
        "gender": "male",
        "birthDate": "2006-12-04",
        "address": [
          {
            "city": "金門縣",
            "country": "TW"
          }
        ]
      },
      "request": {
        "method": "PUT",
        "url": "Patient/TW00058"
      }
    },
    {
      "resource": {
        "resourceType": "Patient",
        "id": "TW00059",
        "identifier": [
          {
            "system": "urn:oid:2.16.886.101.20003.20001",
            "value": "TW00059"
          }
        ],
        "name": [
          {
            "family": "李",
            "given": [
              "芷瑄"
            ],
            "text": "李芷瑄"
          }
        ],
        "gender": "female",
        "birthDate": "2003-12-26",
        "address": [
          {
            "city": "基隆市",
            "country": "TW"
          }
        ]
      },
      "request": {
        "method": "PUT",
        "url": "Patient/TW00059"
      }
    },
    {
      "resource": {
        "resourceType": "Patient",
        "id": "TW00060",
        "identifier": [
          {
            "system": "urn:oid:2.16.886.101.20003.20001",
            "value": "TW00060"
          }
        ],
        "name": [
          {
            "family": "蔡",
            "given": [
              "柏翰"
            ],
            "text": "蔡柏翰"
          }
        ],
        "gender": "male",
        "birthDate": "1957-05-26",
        "address": [
          {
            "city": "嘉義市",
            "country": "TW"
          }
        ]
      },
      "request": {
        "method": "PUT",
        "url": "Patient/TW00060"
      }
    },
    {
      "resource": {
        "resourceType": "Patient",
        "id": "TW00061",
        "identifier": [
          {
            "system": "urn:oid:2.16.886.101.20003.20001",
            "value": "TW00061"
          }
        ],
        "name": [
          {
            "family": "王",
            "given": [
              "志明"
            ],
            "text": "王志明"
          }
        ],
        "gender": "male",
        "birthDate": "1955-09-24",
        "address": [
          {
            "city": "台北市",
            "country": "TW"
          }
        ]
      },
      "request": {
        "method": "PUT",
        "url": "Patient/TW00061"
      }
    },
    {
      "resource": {
        "resourceType": "Patient",
        "id": "TW00062",
        "identifier": [
          {
            "system": "urn:oid:2.16.886.101.20003.20001",
            "value": "TW00062"
          }
        ],
        "name": [
          {
            "family": "張",
            "given": [
              "雅筠"
            ],
            "text": "張雅筠"
          }
        ],
        "gender": "female",
        "birthDate": "1952-03-31",
        "address": [
          {
            "city": "宜蘭縣",
            "country": "TW"
          }
        ]
      },
      "request": {
        "method": "PUT",
        "url": "Patient/TW00062"
      }
    },
    {
      "resource": {
        "resourceType": "Patient",
        "id": "TW00063",
        "identifier": [
          {
            "system": "urn:oid:2.16.886.101.20003.20001",
            "value": "TW00063"
          }
        ],
        "name": [
          {
            "family": "黃",
            "given": [
              "哲瑋"
            ],
            "text": "黃哲瑋"
          }
        ],
        "gender": "male",
        "birthDate": "1971-05-19",
        "address": [
          {
            "city": "台東縣",
            "country": "TW"
          }
        ]
      },
      "request": {
        "method": "PUT",
        "url": "Patient/TW00063"
      }
    },
    {
      "resource": {
        "resourceType": "Patient",
        "id": "TW00064",
        "identifier": [
          {
            "system": "urn:oid:2.16.886.101.20003.20001",
            "value": "TW00064"
          }
        ],
        "name": [
          {
            "family": "廖",
            "given": [
              "彥碩"
            ],
            "text": "廖彥碩"
          }
        ],
        "gender": "male",
        "birthDate": "2012-06-08",
        "address": [
          {
            "city": "花蓮縣",
            "country": "TW"
          }
        ]
      },
      "request": {
        "method": "PUT",
        "url": "Patient/TW00064"
      }
    },
    {
      "resource": {
        "resourceType": "Patient",
        "id": "TW00065",
        "identifier": [
          {
            "system": "urn:oid:2.16.886.101.20003.20001",
            "value": "TW00065"
          }
        ],
        "name": [
          {
            "family": "許",
            "given": [
              "怡婷"
            ],
            "text": "許怡婷"
          }
        ],
        "gender": "female",
        "birthDate": "1988-07-30",
        "address": [
          {
            "city": "嘉義縣",
            "country": "TW"
          }
        ]
      },
      "request": {
        "method": "PUT",
        "url": "Patient/TW00065"
      }
    },
    {
      "resource": {
        "resourceType": "Patient",
        "id": "TW00066",
        "identifier": [
          {
            "system": "urn:oid:2.16.886.101.20003.20001",
            "value": "TW00066"
          }
        ],
        "name": [
          {
            "family": "王",
            "given": [
              "彥廷"
            ],
            "text": "王彥廷"
          }
        ],
        "gender": "male",
        "birthDate": "1972-09-27",
        "address": [
          {
            "city": "宜蘭縣",
            "country": "TW"
          }
        ]
      },
      "request": {
        "method": "PUT",
        "url": "Patient/TW00066"
      }
    },
    {
      "resource": {
        "resourceType": "Patient",
        "id": "TW00067",
        "identifier": [
          {
            "system": "urn:oid:2.16.886.101.20003.20001",
            "value": "TW00067"
          }
        ],
        "name": [
          {
            "family": "王",
            "given": [
              "語彤"
            ],
            "text": "王語彤"
          }
        ],
        "gender": "female",
        "birthDate": "1966-10-10",
        "address": [
          {
            "city": "台中市",
            "country": "TW"
          }
        ]
      },
      "request": {
        "method": "PUT",
        "url": "Patient/TW00067"
      }
    },
    {
      "resource": {
        "resourceType": "Patient",
        "id": "TW00068",
        "identifier": [
          {
            "system": "urn:oid:2.16.886.101.20003.20001",
            "value": "TW00068"
          }
        ],
        "name": [
          {
            "family": "許",
            "given": [
              "雅婷"
            ],
            "text": "許雅婷"
          }
        ],
        "gender": "female",
        "birthDate": "1945-03-01",
        "address": [
          {
            "city": "新竹縣",
            "country": "TW"
          }
        ]
      },
      "request": {
        "method": "PUT",
        "url": "Patient/TW00068"
      }
    },
    {
      "resource": {
        "resourceType": "Patient",
        "id": "TW00069",
        "identifier": [
          {
            "system": "urn:oid:2.16.886.101.20003.20001",
            "value": "TW00069"
          }
        ],
        "name": [
          {
            "family": "賴",
            "given": [
              "依婷"
            ],
            "text": "賴依婷"
          }
        ],
        "gender": "female",
        "birthDate": "2006-07-09",
        "address": [
          {
            "city": "金門縣",
            "country": "TW"
          }
        ]
      },
      "request": {
        "method": "PUT",
        "url": "Patient/TW00069"
      }
    },
    {
      "resource": {
        "resourceType": "Patient",
        "id": "TW00070",
        "identifier": [
          {
            "system": "urn:oid:2.16.886.101.20003.20001",
            "value": "TW00070"
          }
        ],
        "name": [
          {
            "family": "洪",
            "given": [
              "欣怡"
            ],
            "text": "洪欣怡"
          }
        ],
        "gender": "female",
        "birthDate": "1948-04-07",
        "address": [
          {
            "city": "嘉義市",
            "country": "TW"
          }
        ]
      },
      "request": {
        "method": "PUT",
        "url": "Patient/TW00070"
      }
    },
    {
      "resource": {
        "resourceType": "Patient",
        "id": "TW00071",
        "identifier": [
          {
            "system": "urn:oid:2.16.886.101.20003.20001",
            "value": "TW00071"
          }
        ],
        "name": [
          {
            "family": "林",
            "given": [
              "雅筠"
            ],
            "text": "林雅筠"
          }
        ],
        "gender": "female",
        "birthDate": "1977-06-30",
        "address": [
          {
            "city": "台南市",
            "country": "TW"
          }
        ]
      },
      "request": {
        "method": "PUT",
        "url": "Patient/TW00071"
      }
    },
    {
      "resource": {
        "resourceType": "Patient",
        "id": "TW00072",
        "identifier": [
          {
            "system": "urn:oid:2.16.886.101.20003.20001",
            "value": "TW00072"
          }
        ],
        "name": [
          {
            "family": "郭",
            "given": [
              "欣妤"
            ],
            "text": "郭欣妤"
          }
        ],
        "gender": "female",
        "birthDate": "1977-04-02",
        "address": [
          {
            "city": "新竹市",
            "country": "TW"
          }
        ]
      },
      "request": {
        "method": "PUT",
        "url": "Patient/TW00072"
      }
    },
    {
      "resource": {
        "resourceType": "Patient",
        "id": "TW00073",
        "identifier": [
          {
            "system": "urn:oid:2.16.886.101.20003.20001",
            "value": "TW00073"
          }
        ],
        "name": [
          {
            "family": "許",
            "given": [
              "志明"
            ],
            "text": "許志明"
          }
        ],
        "gender": "male",
        "birthDate": "1994-06-02",
        "address": [
          {
            "city": "新北市",
            "country": "TW"
          }
        ]
      },
      "request": {
        "method": "PUT",
        "url": "Patient/TW00073"
      }
    },
    {
      "resource": {
        "resourceType": "Patient",
        "id": "TW00074",
        "identifier": [
          {
            "system": "urn:oid:2.16.886.101.20003.20001",
            "value": "TW00074"
          }
        ],
        "name": [
          {
            "family": "邱",
            "given": [
              "建宏"
            ],
            "text": "邱建宏"
          }
        ],
        "gender": "male",
        "birthDate": "2003-08-17",
        "address": [
          {
            "city": "新竹市",
            "country": "TW"
          }
        ]
      },
      "request": {
        "method": "PUT",
        "url": "Patient/TW00074"
      }
    },
    {
      "resource": {
        "resourceType": "Patient",
        "id": "TW00075",
        "identifier": [
          {
            "system": "urn:oid:2.16.886.101.20003.20001",
            "value": "TW00075"
          }
        ],
        "name": [
          {
            "family": "李",
            "given": [
              "依婷"
            ],
            "text": "李依婷"
          }
        ],
        "gender": "female",
        "birthDate": "1970-11-19",
        "address": [
          {
            "city": "台東縣",
            "country": "TW"
          }
        ]
      },
      "request": {
        "method": "PUT",
        "url": "Patient/TW00075"
      }
    },
    {
      "resource": {
        "resourceType": "Patient",
        "id": "TW00076",
        "identifier": [
          {
            "system": "urn:oid:2.16.886.101.20003.20001",
            "value": "TW00076"
          }
        ],
        "name": [
          {
            "family": "謝",
            "given": [
              "語彤"
            ],
            "text": "謝語彤"
          }
        ],
        "gender": "female",
        "birthDate": "1972-09-23",
        "address": [
          {
            "city": "新竹縣",
            "country": "TW"
          }
        ]
      },
      "request": {
        "method": "PUT",
        "url": "Patient/TW00076"
      }
    },
    {
      "resource": {
        "resourceType": "Patient",
        "id": "TW00077",
        "identifier": [
          {
            "system": "urn:oid:2.16.886.101.20003.20001",
            "value": "TW00077"
          }
        ],
        "name": [
          {
            "family": "王",
            "given": [
              "哲瑋"
            ],
            "text": "王哲瑋"
          }
        ],
        "gender": "male",
        "birthDate": "1960-11-22",
        "address": [
          {
            "city": "高雄市",
            "country": "TW"
          }
        ]
      },
      "request": {
        "method": "PUT",
        "url": "Patient/TW00077"
      }
    },
    {
      "resource": {
        "resourceType": "Patient",
        "id": "TW00078",
        "identifier": [
          {
            "system": "urn:oid:2.16.886.101.20003.20001",
            "value": "TW00078"
          }
        ],
        "name": [
          {
            "family": "賴",
            "given": [
              "志明"
            ],
            "text": "賴志明"
          }
        ],
        "gender": "male",
        "birthDate": "1960-10-16",
        "address": [
          {
            "city": "南投縣",
            "country": "TW"
          }
        ]
      },
      "request": {
        "method": "PUT",
        "url": "Patient/TW00078"
      }
    },
    {
      "resource": {
        "resourceType": "Patient",
        "id": "TW00079",
        "identifier": [
          {
            "system": "urn:oid:2.16.886.101.20003.20001",
            "value": "TW00079"
          }
        ],
        "name": [
          {
            "family": "陳",
            "given": [
              "冠廷"
            ],
            "text": "陳冠廷"
          }
        ],
        "gender": "male",
        "birthDate": "1984-02-08",
        "address": [
          {
            "city": "彰化縣",
            "country": "TW"
          }
        ]
      },
      "request": {
        "method": "PUT",
        "url": "Patient/TW00079"
      }
    },
    {
      "resource": {
        "resourceType": "Patient",
        "id": "TW00080",
        "identifier": [
          {
            "system": "urn:oid:2.16.886.101.20003.20001",
            "value": "TW00080"
          }
        ],
        "name": [
          {
            "family": "曾",
            "given": [
              "志明"
            ],
            "text": "曾志明"
          }
        ],
        "gender": "male",
        "birthDate": "1983-01-03",
        "address": [
          {
            "city": "台東縣",
            "country": "TW"
          }
        ]
      },
      "request": {
        "method": "PUT",
        "url": "Patient/TW00080"
      }
    },
    {
      "resource": {
        "resourceType": "Patient",
        "id": "TW00081",
        "identifier": [
          {
            "system": "urn:oid:2.16.886.101.20003.20001",
            "value": "TW00081"
          }
        ],
        "name": [
          {
            "family": "李",
            "given": [
              "建宏"
            ],
            "text": "李建宏"
          }
        ],
        "gender": "male",
        "birthDate": "2007-09-02",
        "address": [
          {
            "city": "台南市",
            "country": "TW"
          }
        ]
      },
      "request": {
        "method": "PUT",
        "url": "Patient/TW00081"
      }
    },
    {
      "resource": {
        "resourceType": "Patient",
        "id": "TW00082",
        "identifier": [
          {
            "system": "urn:oid:2.16.886.101.20003.20001",
            "value": "TW00082"
          }
        ],
        "name": [
          {
            "family": "蔡",
            "given": [
              "冠霖"
            ],
            "text": "蔡冠霖"
          }
        ],
        "gender": "male",
        "birthDate": "1978-01-15",
        "address": [
          {
            "city": "南投縣",
            "country": "TW"
          }
        ]
      },
      "request": {
        "method": "PUT",
        "url": "Patient/TW00082"
      }
    },
    {
      "resource": {
        "resourceType": "Patient",
        "id": "TW00083",
        "identifier": [
          {
            "system": "urn:oid:2.16.886.101.20003.20001",
            "value": "TW00083"
          }
        ],
        "name": [
          {
            "family": "許",
            "given": [
              "語彤"
            ],
            "text": "許語彤"
          }
        ],
        "gender": "female",
        "birthDate": "1947-10-20",
        "address": [
          {
            "city": "台中市",
            "country": "TW"
          }
        ]
      },
      "request": {
        "method": "PUT",
        "url": "Patient/TW00083"
      }
    },
    {
      "resource": {
        "resourceType": "Patient",
        "id": "TW00084",
        "identifier": [
          {
            "system": "urn:oid:2.16.886.101.20003.20001",
            "value": "TW00084"
          }
        ],
        "name": [
          {
            "family": "王",
            "given": [
              "冠霖"
            ],
            "text": "王冠霖"
          }
        ],
        "gender": "male",
        "birthDate": "1987-12-19",
        "address": [
          {
            "city": "新竹市",
            "country": "TW"
          }
        ]
      },
      "request": {
        "method": "PUT",
        "url": "Patient/TW00084"
      }
    },
    {
      "resource": {
        "resourceType": "Patient",
        "id": "TW00085",
        "identifier": [
          {
            "system": "urn:oid:2.16.886.101.20003.20001",
            "value": "TW00085"
          }
        ],
        "name": [
          {
            "family": "鄭",
            "given": [
              "宇軒"
            ],
            "text": "鄭宇軒"
          }
        ],
        "gender": "male",
        "birthDate": "1950-06-01",
        "address": [
          {
            "city": "台中市",
            "country": "TW"
          }
        ]
      },
      "request": {
        "method": "PUT",
        "url": "Patient/TW00085"
      }
    },
    {
      "resource": {
        "resourceType": "Patient",
        "id": "TW00086",
        "identifier": [
          {
            "system": "urn:oid:2.16.886.101.20003.20001",
            "value": "TW00086"
          }
        ],
        "name": [
          {
            "family": "陳",
            "given": [
              "宗翰"
            ],
            "text": "陳宗翰"
          }
        ],
        "gender": "male",
        "birthDate": "2007-12-25",
        "address": [
          {
            "city": "金門縣",
            "country": "TW"
          }
        ]
      },
      "request": {
        "method": "PUT",
        "url": "Patient/TW00086"
      }
    },
    {
      "resource": {
        "resourceType": "Patient",
        "id": "TW00087",
        "identifier": [
          {
            "system": "urn:oid:2.16.886.101.20003.20001",
            "value": "TW00087"
          }
        ],
        "name": [
          {
            "family": "徐",
            "given": [
              "依婷"
            ],
            "text": "徐依婷"
          }
        ],
        "gender": "female",
        "birthDate": "1992-02-12",
        "address": [
          {
            "city": "新竹市",
            "country": "TW"
          }
        ]
      },
      "request": {
        "method": "PUT",
        "url": "Patient/TW00087"
      }
    },
    {
      "resource": {
        "resourceType": "Patient",
        "id": "TW00088",
        "identifier": [
          {
            "system": "urn:oid:2.16.886.101.20003.20001",
            "value": "TW00088"
          }
        ],
        "name": [
          {
            "family": "徐",
            "given": [
              "俊傑"
            ],
            "text": "徐俊傑"
          }
        ],
        "gender": "male",
        "birthDate": "1955-01-15",
        "address": [
          {
            "city": "彰化縣",
            "country": "TW"
          }
        ]
      },
      "request": {
        "method": "PUT",
        "url": "Patient/TW00088"
      }
    },
    {
      "resource": {
        "resourceType": "Patient",
        "id": "TW00089",
        "identifier": [
          {
            "system": "urn:oid:2.16.886.101.20003.20001",
            "value": "TW00089"
          }
        ],
        "name": [
          {
            "family": "邱",
            "given": [
              "芷瑄"
            ],
            "text": "邱芷瑄"
          }
        ],
        "gender": "female",
        "birthDate": "1968-01-01",
        "address": [
          {
            "city": "苗栗縣",
            "country": "TW"
          }
        ]
      },
      "request": {
        "method": "PUT",
        "url": "Patient/TW00089"
      }
    },
    {
      "resource": {
        "resourceType": "Patient",
        "id": "TW00090",
        "identifier": [
          {
            "system": "urn:oid:2.16.886.101.20003.20001",
            "value": "TW00090"
          }
        ],
        "name": [
          {
            "family": "蔡",
            "given": [
              "承翰"
            ],
            "text": "蔡承翰"
          }
        ],
        "gender": "male",
        "birthDate": "2015-04-12",
        "address": [
          {
            "city": "宜蘭縣",
            "country": "TW"
          }
        ]
      },
      "request": {
        "method": "PUT",
        "url": "Patient/TW00090"
      }
    },
    {
      "resource": {
        "resourceType": "Patient",
        "id": "TW00091",
        "identifier": [
          {
            "system": "urn:oid:2.16.886.101.20003.20001",
            "value": "TW00091"
          }
        ],
        "name": [
          {
            "family": "賴",
            "given": [
              "俊傑"
            ],
            "text": "賴俊傑"
          }
        ],
        "gender": "male",
        "birthDate": "1997-01-31",
        "address": [
          {
            "city": "基隆市",
            "country": "TW"
          }
        ]
      },
      "request": {
        "method": "PUT",
        "url": "Patient/TW00091"
      }
    },
    {
      "resource": {
        "resourceType": "Patient",
        "id": "TW00092",
        "identifier": [
          {
            "system": "urn:oid:2.16.886.101.20003.20001",
            "value": "TW00092"
          }
        ],
        "name": [
          {
            "family": "邱",
            "given": [
              "語彤"
            ],
            "text": "邱語彤"
          }
        ],
        "gender": "female",
        "birthDate": "2005-06-11",
        "address": [
          {
            "city": "台北市",
            "country": "TW"
          }
        ]
      },
      "request": {
        "method": "PUT",
        "url": "Patient/TW00092"
      }
    },
    {
      "resource": {
        "resourceType": "Patient",
        "id": "TW00093",
        "identifier": [
          {
            "system": "urn:oid:2.16.886.101.20003.20001",
            "value": "TW00093"
          }
        ],
        "name": [
          {
            "family": "王",
            "given": [
              "欣怡"
            ],
            "text": "王欣怡"
          }
        ],
        "gender": "female",
        "birthDate": "1983-12-05",
        "address": [
          {
            "city": "金門縣",
            "country": "TW"
          }
        ]
      },
      "request": {
        "method": "PUT",
        "url": "Patient/TW00093"
      }
    },
    {
      "resource": {
        "resourceType": "Patient",
        "id": "TW00094",
        "identifier": [
          {
            "system": "urn:oid:2.16.886.101.20003.20001",
            "value": "TW00094"
          }
        ],
        "name": [
          {
            "family": "劉",
            "given": [
              "哲瑋"
            ],
            "text": "劉哲瑋"
          }
        ],
        "gender": "male",
        "birthDate": "1998-01-24",
        "address": [
          {
            "city": "澎湖縣",
            "country": "TW"
          }
        ]
      },
      "request": {
        "method": "PUT",
        "url": "Patient/TW00094"
      }
    },
    {
      "resource": {
        "resourceType": "Patient",
        "id": "TW00095",
        "identifier": [
          {
            "system": "urn:oid:2.16.886.101.20003.20001",
            "value": "TW00095"
          }
        ],
        "name": [
          {
            "family": "黃",
            "given": [
              "志明"
            ],
            "text": "黃志明"
          }
        ],
        "gender": "male",
        "birthDate": "1986-11-16",
        "address": [
          {
            "city": "新北市",
            "country": "TW"
          }
        ]
      },
      "request": {
        "method": "PUT",
        "url": "Patient/TW00095"
      }
    },
    {
      "resource": {
        "resourceType": "Patient",
        "id": "TW00096",
        "identifier": [
          {
            "system": "urn:oid:2.16.886.101.20003.20001",
            "value": "TW00096"
          }
        ],
        "name": [
          {
            "family": "曾",
            "given": [
              "依婷"
            ],
            "text": "曾依婷"
          }
        ],
        "gender": "female",
        "birthDate": "2011-07-19",
        "address": [
          {
            "city": "苗栗縣",
            "country": "TW"
          }
        ]
      },
      "request": {
        "method": "PUT",
        "url": "Patient/TW00096"
      }
    },
    {
      "resource": {
        "resourceType": "Patient",
        "id": "TW00097",
        "identifier": [
          {
            "system": "urn:oid:2.16.886.101.20003.20001",
            "value": "TW00097"
          }
        ],
        "name": [
          {
            "family": "謝",
            "given": [
              "芷瑄"
            ],
            "text": "謝芷瑄"
          }
        ],
        "gender": "female",
        "birthDate": "1970-01-15",
        "address": [
          {
            "city": "嘉義市",
            "country": "TW"
          }
        ]
      },
      "request": {
        "method": "PUT",
        "url": "Patient/TW00097"
      }
    },
    {
      "resource": {
        "resourceType": "Patient",
        "id": "TW00098",
        "identifier": [
          {
            "system": "urn:oid:2.16.886.101.20003.20001",
            "value": "TW00098"
          }
        ],
        "name": [
          {
            "family": "鄭",
            "given": [
              "怡君"
            ],
            "text": "鄭怡君"
          }
        ],
        "gender": "female",
        "birthDate": "1984-10-15",
        "address": [
          {
            "city": "南投縣",
            "country": "TW"
          }
        ]
      },
      "request": {
        "method": "PUT",
        "url": "Patient/TW00098"
      }
    },
    {
      "resource": {
        "resourceType": "Patient",
        "id": "TW00099",
        "identifier": [
          {
            "system": "urn:oid:2.16.886.101.20003.20001",
            "value": "TW00099"
          }
        ],
        "name": [
          {
            "family": "李",
            "given": [
              "哲瑋"
            ],
            "text": "李哲瑋"
          }
        ],
        "gender": "male",
        "birthDate": "2001-05-23",
        "address": [
          {
            "city": "新竹市",
            "country": "TW"
          }
        ]
      },
      "request": {
        "method": "PUT",
        "url": "Patient/TW00099"
      }
    },
    {
      "resource": {
        "resourceType": "Condition",
        "id": "TW00000-condition-0",
        "clinicalStatus": {
          "coding": [
            {
              "system": "http://terminology.hl7.org/CodeSystem/condition-clinical",
              "code": "resolved"
            }
          ]
        },
        "verificationStatus": {
          "coding": [
            {
              "system": "http://terminology.hl7.org/CodeSystem/condition-ver-status",
              "code": "confirmed"
            }
          ]
        },
        "severity": {
          "coding": [
            {
              "system": "http://snomed.info/sct",
              "code": "6736007",
              "display": "Moderate"
            }
          ]
        },
        "code": {
          "coding": [
            {
              "system": "http://hl7.org/fhir/sid/icd-10",
              "code": "U07.2",
              "display": "COVID-19, virus not identified"
            }
          ],
          "text": "COVID-19, virus not identified"
        },
        "subject": {
          "reference": "Patient/TW00000"
        },
        "onsetDateTime": "2025-11-22"
      },
      "request": {
        "method": "PUT",
        "url": "Condition/TW00000-condition-0"
      }
    },
    {
      "resource": {
        "resourceType": "Condition",
        "id": "TW00001-condition-0",
        "clinicalStatus": {
          "coding": [
            {
              "system": "http://terminology.hl7.org/CodeSystem/condition-clinical",
              "code": "resolved"
            }
          ]
        },
        "verificationStatus": {
          "coding": [
            {
              "system": "http://terminology.hl7.org/CodeSystem/condition-ver-status",
              "code": "confirmed"
            }
          ]
        },
        "severity": {
          "coding": [
            {
              "system": "http://snomed.info/sct",
              "code": "255604002",
              "display": "Mild"
            }
          ]
        },
        "code": {
          "coding": [
            {
              "system": "http://hl7.org/fhir/sid/icd-10",
              "code": "U07.2",
              "display": "COVID-19, virus not identified"
            }
          ],
          "text": "COVID-19, virus not identified"
        },
        "subject": {
          "reference": "Patient/TW00001"
        },
        "onsetDateTime": "2025-06-20"
      },
      "request": {
        "method": "PUT",
        "url": "Condition/TW00001-condition-0"
      }
    },
    {
      "resource": {
        "resourceType": "Condition",
        "id": "TW00002-condition-0",
        "clinicalStatus": {
          "coding": [
            {
              "system": "http://terminology.hl7.org/CodeSystem/condition-clinical",
              "code": "resolved"
            }
          ]
        },
        "verificationStatus": {
          "coding": [
            {
              "system": "http://terminology.hl7.org/CodeSystem/condition-ver-status",
              "code": "confirmed"
            }
          ]
        },
        "severity": {
          "coding": [
            {
              "system": "http://snomed.info/sct",
              "code": "6736007",
              "display": "Moderate"
            }
          ]
        },
        "code": {
          "coding": [
            {
              "system": "http://hl7.org/fhir/sid/icd-10",
              "code": "U07.1",
              "display": "COVID-19, virus identified"
            }
          ],
          "text": "COVID-19, virus identified"
        },
        "subject": {
          "reference": "Patient/TW00002"
        },
        "onsetDateTime": "2025-07-03"
      },
      "request": {
        "method": "PUT",
        "url": "Condition/TW00002-condition-0"
      }
    },
    {
      "resource": {
        "resourceType": "Condition",
        "id": "TW00003-condition-0",
        "clinicalStatus": {
          "coding": [
            {
              "system": "http://terminology.hl7.org/CodeSystem/condition-clinical",
              "code": "resolved"
            }
          ]
        },
        "verificationStatus": {
          "coding": [
            {
              "system": "http://terminology.hl7.org/CodeSystem/condition-ver-status",
              "code": "confirmed"
            }
          ]
        },
        "severity": {
          "coding": [
            {
              "system": "http://snomed.info/sct",
              "code": "255604002",
              "display": "Mild"
            }
          ]
        },
        "code": {
          "coding": [
            {
              "system": "http://hl7.org/fhir/sid/icd-10",
              "code": "U07.2",
              "display": "COVID-19, virus not identified"
            }
          ],
          "text": "COVID-19, virus not identified"
        },
        "subject": {
          "reference": "Patient/TW00003"
        },
        "onsetDateTime": "2025-06-08"
      },
      "request": {
        "method": "PUT",
        "url": "Condition/TW00003-condition-0"
      }
    },
    {
      "resource": {
        "resourceType": "Condition",
        "id": "TW00004-condition-0",
        "clinicalStatus": {
          "coding": [
            {
              "system": "http://terminology.hl7.org/CodeSystem/condition-clinical",
              "code": "resolved"
            }
          ]
        },
        "verificationStatus": {
          "coding": [
            {
              "system": "http://terminology.hl7.org/CodeSystem/condition-ver-status",
              "code": "confirmed"
            }
          ]
        },
        "severity": {
          "coding": [
            {
              "system": "http://snomed.info/sct",
              "code": "255604002",
              "display": "Mild"
            }
          ]
        },
        "code": {
          "coding": [
            {
              "system": "http://hl7.org/fhir/sid/icd-10",
              "code": "U07.1",
              "display": "COVID-19, virus identified"
            }
          ],
          "text": "COVID-19, virus identified"
        },
        "subject": {
          "reference": "Patient/TW00004"
        },
        "onsetDateTime": "2025-06-08"
      },
      "request": {
        "method": "PUT",
        "url": "Condition/TW00004-condition-0"
      }
    },
    {
      "resource": {
        "resourceType": "Condition",
        "id": "TW00005-condition-0",
        "clinicalStatus": {
          "coding": [
            {
              "system": "http://terminology.hl7.org/CodeSystem/condition-clinical",
              "code": "resolved"
            }
          ]
        },
        "verificationStatus": {
          "coding": [
            {
              "system": "http://terminology.hl7.org/CodeSystem/condition-ver-status",
              "code": "confirmed"
            }
          ]
        },
        "severity": {
          "coding": [
            {
              "system": "http://snomed.info/sct",
              "code": "255604002",
              "display": "Mild"
            }
          ]
        },
        "code": {
          "coding": [
            {
              "system": "http://hl7.org/fhir/sid/icd-10",
              "code": "U07.2",
              "display": "COVID-19, virus not identified"
            }
          ],
          "text": "COVID-19, virus not identified"
        },
        "subject": {
          "reference": "Patient/TW00005"
        },
        "onsetDateTime": "2025-10-27"
      },
      "request": {
        "method": "PUT",
        "url": "Condition/TW00005-condition-0"
      }
    },
    {
      "resource": {
        "resourceType": "Condition",
        "id": "TW00006-condition-0",
        "clinicalStatus": {
          "coding": [
            {
              "system": "http://terminology.hl7.org/CodeSystem/condition-clinical",
              "code": "resolved"
            }
          ]
        },
        "verificationStatus": {
          "coding": [
            {
              "system": "http://terminology.hl7.org/CodeSystem/condition-ver-status",
              "code": "confirmed"
            }
          ]
        },
        "severity": {
          "coding": [
            {
              "system": "http://snomed.info/sct",
              "code": "6736007",
              "display": "Moderate"
            }
          ]
        },
        "code": {
          "coding": [
            {
              "system": "http://hl7.org/fhir/sid/icd-10",
              "code": "U07.1",
              "display": "COVID-19, virus identified"
            }
          ],
          "text": "COVID-19, virus identified"
        },
        "subject": {
          "reference": "Patient/TW00006"
        },
        "onsetDateTime": "2025-07-13"
      },
      "request": {
        "method": "PUT",
        "url": "Condition/TW00006-condition-0"
      }
    },
    {
      "resource": {
        "resourceType": "Condition",
        "id": "TW00007-condition-0",
        "clinicalStatus": {
          "coding": [
            {
              "system": "http://terminology.hl7.org/CodeSystem/condition-clinical",
              "code": "resolved"
            }
          ]
        },
        "verificationStatus": {
          "coding": [
            {
              "system": "http://terminology.hl7.org/CodeSystem/condition-ver-status",
              "code": "confirmed"
            }
          ]
        },
        "severity": {
          "coding": [
            {
              "system": "http://snomed.info/sct",
              "code": "255604002",
              "display": "Mild"
            }
          ]
        },
        "code": {
          "coding": [
            {
              "system": "http://hl7.org/fhir/sid/icd-10",
              "code": "U07.1",
              "display": "COVID-19, virus identified"
            }
          ],
          "text": "COVID-19, virus identified"
        },
        "subject": {
          "reference": "Patient/TW00007"
        },
        "onsetDateTime": "2025-11-17"
      },
      "request": {
        "method": "PUT",
        "url": "Condition/TW00007-condition-0"
      }
    },
    {
      "resource": {
        "resourceType": "Condition",
        "id": "TW00008-condition-0",
        "clinicalStatus": {
          "coding": [
            {
              "system": "http://terminology.hl7.org/CodeSystem/condition-clinical",
              "code": "resolved"
            }
          ]
        },
        "verificationStatus": {
          "coding": [
            {
              "system": "http://terminology.hl7.org/CodeSystem/condition-ver-status",
              "code": "confirmed"
            }
          ]
        },
        "severity": {
          "coding": [
            {
              "system": "http://snomed.info/sct",
              "code": "255604002",
              "display": "Mild"
            }
          ]
        },
        "code": {
          "coding": [
            {
              "system": "http://hl7.org/fhir/sid/icd-10",
              "code": "U07.1",
              "display": "COVID-19, virus identified"
            }
          ],
          "text": "COVID-19, virus identified"
        },
        "subject": {
          "reference": "Patient/TW00008"
        },
        "onsetDateTime": "2025-09-06"
      },
      "request": {
        "method": "PUT",
        "url": "Condition/TW00008-condition-0"
      }
    },
    {
      "resource": {
        "resourceType": "Condition",
        "id": "TW00009-condition-0",
        "clinicalStatus": {
          "coding": [
            {
              "system": "http://terminology.hl7.org/CodeSystem/condition-clinical",
              "code": "resolved"
            }
          ]
        },
        "verificationStatus": {
          "coding": [
            {
              "system": "http://terminology.hl7.org/CodeSystem/condition-ver-status",
              "code": "confirmed"
            }
          ]
        },
        "severity": {
          "coding": [
            {
              "system": "http://snomed.info/sct",
              "code": "255604002",
              "display": "Mild"
            }
          ]
        },
        "code": {
          "coding": [
            {
              "system": "http://hl7.org/fhir/sid/icd-10",
              "code": "U07.2",
              "display": "COVID-19, virus not identified"
            }
          ],
          "text": "COVID-19, virus not identified"
        },
        "subject": {
          "reference": "Patient/TW00009"
        },
        "onsetDateTime": "2025-11-21"
      },
      "request": {
        "method": "PUT",
        "url": "Condition/TW00009-condition-0"
      }
    },
    {
      "resource": {
        "resourceType": "Condition",
        "id": "TW00010-condition-0",
        "clinicalStatus": {
          "coding": [
            {
              "system": "http://terminology.hl7.org/CodeSystem/condition-clinical",
              "code": "resolved"
            }
          ]
        },
        "verificationStatus": {
          "coding": [
            {
              "system": "http://terminology.hl7.org/CodeSystem/condition-ver-status",
              "code": "confirmed"
            }
          ]
        },
        "severity": {
          "coding": [
            {
              "system": "http://snomed.info/sct",
              "code": "6736007",
              "display": "Moderate"
            }
          ]
        },
        "code": {
          "coding": [
            {
              "system": "http://hl7.org/fhir/sid/icd-10",
              "code": "U07.2",
              "display": "COVID-19, virus not identified"
            }
          ],
          "text": "COVID-19, virus not identified"
        },
        "subject": {
          "reference": "Patient/TW00010"
        },
        "onsetDateTime": "2025-07-11"
      },
      "request": {
        "method": "PUT",
        "url": "Condition/TW00010-condition-0"
      }
    },
    {
      "resource": {
        "resourceType": "Condition",
        "id": "TW00011-condition-0",
        "clinicalStatus": {
          "coding": [
            {
              "system": "http://terminology.hl7.org/CodeSystem/condition-clinical",
              "code": "resolved"
            }
          ]
        },
        "verificationStatus": {
          "coding": [
            {
              "system": "http://terminology.hl7.org/CodeSystem/condition-ver-status",
              "code": "confirmed"
            }
          ]
        },
        "severity": {
          "coding": [
            {
              "system": "http://snomed.info/sct",
              "code": "255604002",
              "display": "Mild"
            }
          ]
        },
        "code": {
          "coding": [
            {
              "system": "http://hl7.org/fhir/sid/icd-10",
              "code": "U07.1",
              "display": "COVID-19, virus identified"
            }
          ],
          "text": "COVID-19, virus identified"
        },
        "subject": {
          "reference": "Patient/TW00011"
        },
        "onsetDateTime": "2025-11-10"
      },
      "request": {
        "method": "PUT",
        "url": "Condition/TW00011-condition-0"
      }
    },
    {
      "resource": {
        "resourceType": "Condition",
        "id": "TW00012-condition-0",
        "clinicalStatus": {
          "coding": [
            {
              "system": "http://terminology.hl7.org/CodeSystem/condition-clinical",
              "code": "resolved"
            }
          ]
        },
        "verificationStatus": {
          "coding": [
            {
              "system": "http://terminology.hl7.org/CodeSystem/condition-ver-status",
              "code": "confirmed"
            }
          ]
        },
        "severity": {
          "coding": [
            {
              "system": "http://snomed.info/sct",
              "code": "255604002",
              "display": "Mild"
            }
          ]
        },
        "code": {
          "coding": [
            {
              "system": "http://hl7.org/fhir/sid/icd-10",
              "code": "U07.2",
              "display": "COVID-19, virus not identified"
            }
          ],
          "text": "COVID-19, virus not identified"
        },
        "subject": {
          "reference": "Patient/TW00012"
        },
        "onsetDateTime": "2025-11-13"
      },
      "request": {
        "method": "PUT",
        "url": "Condition/TW00012-condition-0"
      }
    },
    {
      "resource": {
        "resourceType": "Condition",
        "id": "TW00013-condition-0",
        "clinicalStatus": {
          "coding": [
            {
              "system": "http://terminology.hl7.org/CodeSystem/condition-clinical",
              "code": "resolved"
            }
          ]
        },
        "verificationStatus": {
          "coding": [
            {
              "system": "http://terminology.hl7.org/CodeSystem/condition-ver-status",
              "code": "confirmed"
            }
          ]
        },
        "severity": {
          "coding": [
            {
              "system": "http://snomed.info/sct",
              "code": "6736007",
              "display": "Moderate"
            }
          ]
        },
        "code": {
          "coding": [
            {
              "system": "http://hl7.org/fhir/sid/icd-10",
              "code": "U07.2",
              "display": "COVID-19, virus not identified"
            }
          ],
          "text": "COVID-19, virus not identified"
        },
        "subject": {
          "reference": "Patient/TW00013"
        },
        "onsetDateTime": "2025-10-15"
      },
      "request": {
        "method": "PUT",
        "url": "Condition/TW00013-condition-0"
      }
    },
    {
      "resource": {
        "resourceType": "Condition",
        "id": "TW00014-condition-0",
        "clinicalStatus": {
          "coding": [
            {
              "system": "http://terminology.hl7.org/CodeSystem/condition-clinical",
              "code": "resolved"
            }
          ]
        },
        "verificationStatus": {
          "coding": [
            {
              "system": "http://terminology.hl7.org/CodeSystem/condition-ver-status",
              "code": "confirmed"
            }
          ]
        },
        "severity": {
          "coding": [
            {
              "system": "http://snomed.info/sct",
              "code": "24484000",
              "display": "Severe"
            }
          ]
        },
        "code": {
          "coding": [
            {
              "system": "http://hl7.org/fhir/sid/icd-10",
              "code": "U07.1",
              "display": "COVID-19, virus identified"
            }
          ],
          "text": "COVID-19, virus identified"
        },
        "subject": {
          "reference": "Patient/TW00014"
        },
        "onsetDateTime": "2025-10-30"
      },
      "request": {
        "method": "PUT",
        "url": "Condition/TW00014-condition-0"
      }
    },
    {
      "resource": {
        "resourceType": "Condition",
        "id": "TW00015-condition-0",
        "clinicalStatus": {
          "coding": [
            {
              "system": "http://terminology.hl7.org/CodeSystem/condition-clinical",
              "code": "resolved"
            }
          ]
        },
        "verificationStatus": {
          "coding": [
            {
              "system": "http://terminology.hl7.org/CodeSystem/condition-ver-status",
              "code": "confirmed"
            }
          ]
        },
        "severity": {
          "coding": [
            {
              "system": "http://snomed.info/sct",
              "code": "255604002",
              "display": "Mild"
            }
          ]
        },
        "code": {
          "coding": [
            {
              "system": "http://hl7.org/fhir/sid/icd-10",
              "code": "U07.2",
              "display": "COVID-19, virus not identified"
            }
          ],
          "text": "COVID-19, virus not identified"
        },
        "subject": {
          "reference": "Patient/TW00015"
        },
        "onsetDateTime": "2025-06-18"
      },
      "request": {
        "method": "PUT",
        "url": "Condition/TW00015-condition-0"
      }
    },
    {
      "resource": {
        "resourceType": "Condition",
        "id": "TW00016-condition-0",
        "clinicalStatus": {
          "coding": [
            {
              "system": "http://terminology.hl7.org/CodeSystem/condition-clinical",
              "code": "resolved"
            }
          ]
        },
        "verificationStatus": {
          "coding": [
            {
              "system": "http://terminology.hl7.org/CodeSystem/condition-ver-status",
              "code": "confirmed"
            }
          ]
        },
        "severity": {
          "coding": [
            {
              "system": "http://snomed.info/sct",
              "code": "255604002",
              "display": "Mild"
            }
          ]
        },
        "code": {
          "coding": [
            {
              "system": "http://hl7.org/fhir/sid/icd-10",
              "code": "U07.1",
              "display": "COVID-19, virus identified"
            }
          ],
          "text": "COVID-19, virus identified"
        },
        "subject": {
          "reference": "Patient/TW00016"
        },
        "onsetDateTime": "2025-08-04"
      },
      "request": {
        "method": "PUT",
        "url": "Condition/TW00016-condition-0"
      }
    },
    {
      "resource": {
        "resourceType": "Condition",
        "id": "TW00017-condition-0",
        "clinicalStatus": {
          "coding": [
            {
              "system": "http://terminology.hl7.org/CodeSystem/condition-clinical",
              "code": "resolved"
            }
          ]
        },
        "verificationStatus": {
          "coding": [
            {
              "system": "http://terminology.hl7.org/CodeSystem/condition-ver-status",
              "code": "confirmed"
            }
          ]
        },
        "severity": {
          "coding": [
            {
              "system": "http://snomed.info/sct",
              "code": "255604002",
              "display": "Mild"
            }
          ]
        },
        "code": {
          "coding": [
            {
              "system": "http://hl7.org/fhir/sid/icd-10",
              "code": "U07.1",
              "display": "COVID-19, virus identified"
            }
          ],
          "text": "COVID-19, virus identified"
        },
        "subject": {
          "reference": "Patient/TW00017"
        },
        "onsetDateTime": "2025-06-11"
      },
      "request": {
        "method": "PUT",
        "url": "Condition/TW00017-condition-0"
      }
    },
    {
      "resource": {
        "resourceType": "Condition",
        "id": "TW00018-condition-0",
        "clinicalStatus": {
          "coding": [
            {
              "system": "http://terminology.hl7.org/CodeSystem/condition-clinical",
              "code": "resolved"
            }
          ]
        },
        "verificationStatus": {
          "coding": [
            {
              "system": "http://terminology.hl7.org/CodeSystem/condition-ver-status",
              "code": "confirmed"
            }
          ]
        },
        "severity": {
          "coding": [
            {
              "system": "http://snomed.info/sct",
              "code": "255604002",
              "display": "Mild"
            }
          ]
        },
        "code": {
          "coding": [
            {
              "system": "http://hl7.org/fhir/sid/icd-10",
              "code": "U07.2",
              "display": "COVID-19, virus not identified"
            }
          ],
          "text": "COVID-19, virus not identified"
        },
        "subject": {
          "reference": "Patient/TW00018"
        },
        "onsetDateTime": "2025-07-16"
      },
      "request": {
        "method": "PUT",
        "url": "Condition/TW00018-condition-0"
      }
    },
    {
      "resource": {
        "resourceType": "Condition",
        "id": "TW00019-condition-0",
        "clinicalStatus": {
          "coding": [
            {
              "system": "http://terminology.hl7.org/CodeSystem/condition-clinical",
              "code": "resolved"
            }
          ]
        },
        "verificationStatus": {
          "coding": [
            {
              "system": "http://terminology.hl7.org/CodeSystem/condition-ver-status",
              "code": "confirmed"
            }
          ]
        },
        "severity": {
          "coding": [
            {
              "system": "http://snomed.info/sct",
              "code": "255604002",
              "display": "Mild"
            }
          ]
        },
        "code": {
          "coding": [
            {
              "system": "http://hl7.org/fhir/sid/icd-10",
              "code": "U07.1",
              "display": "COVID-19, virus identified"
            }
          ],
          "text": "COVID-19, virus identified"
        },
        "subject": {
          "reference": "Patient/TW00019"
        },
        "onsetDateTime": "2025-09-30"
      },
      "request": {
        "method": "PUT",
        "url": "Condition/TW00019-condition-0"
      }
    },
    {
      "resource": {
        "resourceType": "Condition",
        "id": "TW00020-condition-0",
        "clinicalStatus": {
          "coding": [
            {
              "system": "http://terminology.hl7.org/CodeSystem/condition-clinical",
              "code": "resolved"
            }
          ]
        },
        "verificationStatus": {
          "coding": [
            {
              "system": "http://terminology.hl7.org/CodeSystem/condition-ver-status",
              "code": "confirmed"
            }
          ]
        },
        "severity": {
          "coding": [
            {
              "system": "http://snomed.info/sct",
              "code": "255604002",
              "display": "Mild"
            }
          ]
        },
        "code": {
          "coding": [
            {
              "system": "http://hl7.org/fhir/sid/icd-10",
              "code": "U07.2",
              "display": "COVID-19, virus not identified"
            }
          ],
          "text": "COVID-19, virus not identified"
        },
        "subject": {
          "reference": "Patient/TW00020"
        },
        "onsetDateTime": "2025-09-14"
      },
      "request": {
        "method": "PUT",
        "url": "Condition/TW00020-condition-0"
      }
    },
    {
      "resource": {
        "resourceType": "Condition",
        "id": "TW00021-condition-0",
        "clinicalStatus": {
          "coding": [
            {
              "system": "http://terminology.hl7.org/CodeSystem/condition-clinical",
              "code": "resolved"
            }
          ]
        },
        "verificationStatus": {
          "coding": [
            {
              "system": "http://terminology.hl7.org/CodeSystem/condition-ver-status",
              "code": "confirmed"
            }
          ]
        },
        "severity": {
          "coding": [
            {
              "system": "http://snomed.info/sct",
              "code": "255604002",
              "display": "Mild"
            }
          ]
        },
        "code": {
          "coding": [
            {
              "system": "http://hl7.org/fhir/sid/icd-10",
              "code": "U07.1",
              "display": "COVID-19, virus identified"
            }
          ],
          "text": "COVID-19, virus identified"
        },
        "subject": {
          "reference": "Patient/TW00021"
        },
        "onsetDateTime": "2025-10-03"
      },
      "request": {
        "method": "PUT",
        "url": "Condition/TW00021-condition-0"
      }
    },
    {
      "resource": {
        "resourceType": "Condition",
        "id": "TW00022-condition-0",
        "clinicalStatus": {
          "coding": [
            {
              "system": "http://terminology.hl7.org/CodeSystem/condition-clinical",
              "code": "resolved"
            }
          ]
        },
        "verificationStatus": {
          "coding": [
            {
              "system": "http://terminology.hl7.org/CodeSystem/condition-ver-status",
              "code": "confirmed"
            }
          ]
        },
        "severity": {
          "coding": [
            {
              "system": "http://snomed.info/sct",
              "code": "255604002",
              "display": "Mild"
            }
          ]
        },
        "code": {
          "coding": [
            {
              "system": "http://hl7.org/fhir/sid/icd-10",
              "code": "U07.2",
              "display": "COVID-19, virus not identified"
            }
          ],
          "text": "COVID-19, virus not identified"
        },
        "subject": {
          "reference": "Patient/TW00022"
        },
        "onsetDateTime": "2025-08-09"
      },
      "request": {
        "method": "PUT",
        "url": "Condition/TW00022-condition-0"
      }
    },
    {
      "resource": {
        "resourceType": "Condition",
        "id": "TW00023-condition-0",
        "clinicalStatus": {
          "coding": [
            {
              "system": "http://terminology.hl7.org/CodeSystem/condition-clinical",
              "code": "resolved"
            }
          ]
        },
        "verificationStatus": {
          "coding": [
            {
              "system": "http://terminology.hl7.org/CodeSystem/condition-ver-status",
              "code": "confirmed"
            }
          ]
        },
        "severity": {
          "coding": [
            {
              "system": "http://snomed.info/sct",
              "code": "6736007",
              "display": "Moderate"
            }
          ]
        },
        "code": {
          "coding": [
            {
              "system": "http://hl7.org/fhir/sid/icd-10",
              "code": "U07.1",
              "display": "COVID-19, virus identified"
            }
          ],
          "text": "COVID-19, virus identified"
        },
        "subject": {
          "reference": "Patient/TW00023"
        },
        "onsetDateTime": "2025-10-27"
      },
      "request": {
        "method": "PUT",
        "url": "Condition/TW00023-condition-0"
      }
    },
    {
      "resource": {
        "resourceType": "Condition",
        "id": "TW00024-condition-0",
        "clinicalStatus": {
          "coding": [
            {
              "system": "http://terminology.hl7.org/CodeSystem/condition-clinical",
              "code": "resolved"
            }
          ]
        },
        "verificationStatus": {
          "coding": [
            {
              "system": "http://terminology.hl7.org/CodeSystem/condition-ver-status",
              "code": "confirmed"
            }
          ]
        },
        "severity": {
          "coding": [
            {
              "system": "http://snomed.info/sct",
              "code": "6736007",
              "display": "Moderate"
            }
          ]
        },
        "code": {
          "coding": [
            {
              "system": "http://hl7.org/fhir/sid/icd-10",
              "code": "U07.1",
              "display": "COVID-19, virus identified"
            }
          ],
          "text": "COVID-19, virus identified"
        },
        "subject": {
          "reference": "Patient/TW00024"
        },
        "onsetDateTime": "2025-08-28"
      },
      "request": {
        "method": "PUT",
        "url": "Condition/TW00024-condition-0"
      }
    },
    {
      "resource": {
        "resourceType": "Condition",
        "id": "TW00025-condition-0",
        "clinicalStatus": {
          "coding": [
            {
              "system": "http://terminology.hl7.org/CodeSystem/condition-clinical",
              "code": "resolved"
            }
          ]
        },
        "verificationStatus": {
          "coding": [
            {
              "system": "http://terminology.hl7.org/CodeSystem/condition-ver-status",
              "code": "confirmed"
            }
          ]
        },
        "severity": {
          "coding": [
            {
              "system": "http://snomed.info/sct",
              "code": "6736007",
              "display": "Moderate"
            }
          ]
        },
        "code": {
          "coding": [
            {
              "system": "http://hl7.org/fhir/sid/icd-10",
              "code": "U07.2",
              "display": "COVID-19, virus not identified"
            }
          ],
          "text": "COVID-19, virus not identified"
        },
        "subject": {
          "reference": "Patient/TW00025"
        },
        "onsetDateTime": "2025-07-10"
      },
      "request": {
        "method": "PUT",
        "url": "Condition/TW00025-condition-0"
      }
    },
    {
      "resource": {
        "resourceType": "Condition",
        "id": "TW00026-condition-0",
        "clinicalStatus": {
          "coding": [
            {
              "system": "http://terminology.hl7.org/CodeSystem/condition-clinical",
              "code": "resolved"
            }
          ]
        },
        "verificationStatus": {
          "coding": [
            {
              "system": "http://terminology.hl7.org/CodeSystem/condition-ver-status",
              "code": "confirmed"
            }
          ]
        },
        "severity": {
          "coding": [
            {
              "system": "http://snomed.info/sct",
              "code": "6736007",
              "display": "Moderate"
            }
          ]
        },
        "code": {
          "coding": [
            {
              "system": "http://hl7.org/fhir/sid/icd-10",
              "code": "U07.2",
              "display": "COVID-19, virus not identified"
            }
          ],
          "text": "COVID-19, virus not identified"
        },
        "subject": {
          "reference": "Patient/TW00026"
        },
        "onsetDateTime": "2025-11-25"
      },
      "request": {
        "method": "PUT",
        "url": "Condition/TW00026-condition-0"
      }
    },
    {
      "resource": {
        "resourceType": "Condition",
        "id": "TW00027-condition-0",
        "clinicalStatus": {
          "coding": [
            {
              "system": "http://terminology.hl7.org/CodeSystem/condition-clinical",
              "code": "resolved"
            }
          ]
        },
        "verificationStatus": {
          "coding": [
            {
              "system": "http://terminology.hl7.org/CodeSystem/condition-ver-status",
              "code": "confirmed"
            }
          ]
        },
        "severity": {
          "coding": [
            {
              "system": "http://snomed.info/sct",
              "code": "6736007",
              "display": "Moderate"
            }
          ]
        },
        "code": {
          "coding": [
            {
              "system": "http://hl7.org/fhir/sid/icd-10",
              "code": "U07.2",
              "display": "COVID-19, virus not identified"
            }
          ],
          "text": "COVID-19, virus not identified"
        },
        "subject": {
          "reference": "Patient/TW00027"
        },
        "onsetDateTime": "2025-07-09"
      },
      "request": {
        "method": "PUT",
        "url": "Condition/TW00027-condition-0"
      }
    },
    {
      "resource": {
        "resourceType": "Condition",
        "id": "TW00028-condition-0",
        "clinicalStatus": {
          "coding": [
            {
              "system": "http://terminology.hl7.org/CodeSystem/condition-clinical",
              "code": "resolved"
            }
          ]
        },
        "verificationStatus": {
          "coding": [
            {
              "system": "http://terminology.hl7.org/CodeSystem/condition-ver-status",
              "code": "confirmed"
            }
          ]
        },
        "severity": {
          "coding": [
            {
              "system": "http://snomed.info/sct",
              "code": "6736007",
              "display": "Moderate"
            }
          ]
        },
        "code": {
          "coding": [
            {
              "system": "http://hl7.org/fhir/sid/icd-10",
              "code": "U07.1",
              "display": "COVID-19, virus identified"
            }
          ],
          "text": "COVID-19, virus identified"
        },
        "subject": {
          "reference": "Patient/TW00028"
        },
        "onsetDateTime": "2025-07-25"
      },
      "request": {
        "method": "PUT",
        "url": "Condition/TW00028-condition-0"
      }
    },
    {
      "resource": {
        "resourceType": "Condition",
        "id": "TW00029-condition-0",
        "clinicalStatus": {
          "coding": [
            {
              "system": "http://terminology.hl7.org/CodeSystem/condition-clinical",
              "code": "resolved"
            }
          ]
        },
        "verificationStatus": {
          "coding": [
            {
              "system": "http://terminology.hl7.org/CodeSystem/condition-ver-status",
              "code": "confirmed"
            }
          ]
        },
        "severity": {
          "coding": [
            {
              "system": "http://snomed.info/sct",
              "code": "255604002",
              "display": "Mild"
            }
          ]
        },
        "code": {
          "coding": [
            {
              "system": "http://hl7.org/fhir/sid/icd-10",
              "code": "U07.1",
              "display": "COVID-19, virus identified"
            }
          ],
          "text": "COVID-19, virus identified"
        },
        "subject": {
          "reference": "Patient/TW00029"
        },
        "onsetDateTime": "2025-10-03"
      },
      "request": {
        "method": "PUT",
        "url": "Condition/TW00029-condition-0"
      }
    },
    {
      "resource": {
        "resourceType": "Condition",
        "id": "TW00030-condition-0",
        "clinicalStatus": {
          "coding": [
            {
              "system": "http://terminology.hl7.org/CodeSystem/condition-clinical",
              "code": "resolved"
            }
          ]
        },
        "verificationStatus": {
          "coding": [
            {
              "system": "http://terminology.hl7.org/CodeSystem/condition-ver-status",
              "code": "confirmed"
            }
          ]
        },
        "severity": {
          "coding": [
            {
              "system": "http://snomed.info/sct",
              "code": "24484000",
              "display": "Severe"
            }
          ]
        },
        "code": {
          "coding": [
            {
              "system": "http://hl7.org/fhir/sid/icd-10",
              "code": "J10.1",
              "display": "Influenza with other respiratory manifestations"
            }
          ],
          "text": "Influenza with other respiratory manifestations"
        },
        "subject": {
          "reference": "Patient/TW00030"
        },
        "onsetDateTime": "2025-11-18"
      },
      "request": {
        "method": "PUT",
        "url": "Condition/TW00030-condition-0"
      }
    },
    {
      "resource": {
        "resourceType": "Condition",
        "id": "TW00031-condition-0",
        "clinicalStatus": {
          "coding": [
            {
              "system": "http://terminology.hl7.org/CodeSystem/condition-clinical",
              "code": "resolved"
            }
          ]
        },
        "verificationStatus": {
          "coding": [
            {
              "system": "http://terminology.hl7.org/CodeSystem/condition-ver-status",
              "code": "confirmed"
            }
          ]
        },
        "severity": {
          "coding": [
            {
              "system": "http://snomed.info/sct",
              "code": "6736007",
              "display": "Moderate"
            }
          ]
        },
        "code": {
          "coding": [
            {
              "system": "http://hl7.org/fhir/sid/icd-10",
              "code": "J10.1",
              "display": "Influenza with other respiratory manifestations"
            }
          ],
          "text": "Influenza with other respiratory manifestations"
        },
        "subject": {
          "reference": "Patient/TW00031"
        },
        "onsetDateTime": "2025-11-28"
      },
      "request": {
        "method": "PUT",
        "url": "Condition/TW00031-condition-0"
      }
    },
    {
      "resource": {
        "resourceType": "Condition",
        "id": "TW00032-condition-0",
        "clinicalStatus": {
          "coding": [
            {
              "system": "http://terminology.hl7.org/CodeSystem/condition-clinical",
              "code": "resolved"
            }
          ]
        },
        "verificationStatus": {
          "coding": [
            {
              "system": "http://terminology.hl7.org/CodeSystem/condition-ver-status",
              "code": "confirmed"
            }
          ]
        },
        "severity": {
          "coding": [
            {
              "system": "http://snomed.info/sct",
              "code": "255604002",
              "display": "Mild"
            }
          ]
        },
        "code": {
          "coding": [
            {
              "system": "http://hl7.org/fhir/sid/icd-10",
              "code": "J11.0",
              "display": "Influenza with pneumonia, virus not identified"
            }
          ],
          "text": "Influenza with pneumonia, virus not identified"
        },
        "subject": {
          "reference": "Patient/TW00032"
        },
        "onsetDateTime": "2025-07-24"
      },
      "request": {
        "method": "PUT",
        "url": "Condition/TW00032-condition-0"
      }
    },
    {
      "resource": {
        "resourceType": "Condition",
        "id": "TW00033-condition-0",
        "clinicalStatus": {
          "coding": [
            {
              "system": "http://terminology.hl7.org/CodeSystem/condition-clinical",
              "code": "resolved"
            }
          ]
        },
        "verificationStatus": {
          "coding": [
            {
              "system": "http://terminology.hl7.org/CodeSystem/condition-ver-status",
              "code": "confirmed"
            }
          ]
        },
        "severity": {
          "coding": [
            {
              "system": "http://snomed.info/sct",
              "code": "255604002",
              "display": "Mild"
            }
          ]
        },
        "code": {
          "coding": [
            {
              "system": "http://hl7.org/fhir/sid/icd-10",
              "code": "J10.0",
              "display": "Influenza with pneumonia"
            }
          ],
          "text": "Influenza with pneumonia"
        },
        "subject": {
          "reference": "Patient/TW00033"
        },
        "onsetDateTime": "2025-06-21"
      },
      "request": {
        "method": "PUT",
        "url": "Condition/TW00033-condition-0"
      }
    },
    {
      "resource": {
        "resourceType": "Condition",
        "id": "TW00034-condition-0",
        "clinicalStatus": {
          "coding": [
            {
              "system": "http://terminology.hl7.org/CodeSystem/condition-clinical",
              "code": "resolved"
            }
          ]
        },
        "verificationStatus": {
          "coding": [
            {
              "system": "http://terminology.hl7.org/CodeSystem/condition-ver-status",
              "code": "confirmed"
            }
          ]
        },
        "severity": {
          "coding": [
            {
              "system": "http://snomed.info/sct",
              "code": "255604002",
              "display": "Mild"
            }
          ]
        },
        "code": {
          "coding": [
            {
              "system": "http://hl7.org/fhir/sid/icd-10",
              "code": "J11.0",
              "display": "Influenza with pneumonia, virus not identified"
            }
          ],
          "text": "Influenza with pneumonia, virus not identified"
        },
        "subject": {
          "reference": "Patient/TW00034"
        },
        "onsetDateTime": "2025-09-22"
      },
      "request": {
        "method": "PUT",
        "url": "Condition/TW00034-condition-0"
      }
    },
    {
      "resource": {
        "resourceType": "Condition",
        "id": "TW00035-condition-0",
        "clinicalStatus": {
          "coding": [
            {
              "system": "http://terminology.hl7.org/CodeSystem/condition-clinical",
              "code": "resolved"
            }
          ]
        },
        "verificationStatus": {
          "coding": [
            {
              "system": "http://terminology.hl7.org/CodeSystem/condition-ver-status",
              "code": "confirmed"
            }
          ]
        },
        "severity": {
          "coding": [
            {
              "system": "http://snomed.info/sct",
              "code": "6736007",
              "display": "Moderate"
            }
          ]
        },
        "code": {
          "coding": [
            {
              "system": "http://hl7.org/fhir/sid/icd-10",
              "code": "J09",
              "display": "Influenza due to identified influenza virus"
            }
          ],
          "text": "Influenza due to identified influenza virus"
        },
        "subject": {
          "reference": "Patient/TW00035"
        },
        "onsetDateTime": "2025-07-19"
      },
      "request": {
        "method": "PUT",
        "url": "Condition/TW00035-condition-0"
      }
    },
    {
      "resource": {
        "resourceType": "Condition",
        "id": "TW00036-condition-0",
        "clinicalStatus": {
          "coding": [
            {
              "system": "http://terminology.hl7.org/CodeSystem/condition-clinical",
              "code": "resolved"
            }
          ]
        },
        "verificationStatus": {
          "coding": [
            {
              "system": "http://terminology.hl7.org/CodeSystem/condition-ver-status",
              "code": "confirmed"
            }
          ]
        },
        "severity": {
          "coding": [
            {
              "system": "http://snomed.info/sct",
              "code": "255604002",
              "display": "Mild"
            }
          ]
        },
        "code": {
          "coding": [
            {
              "system": "http://hl7.org/fhir/sid/icd-10",
              "code": "J09",
              "display": "Influenza due to identified influenza virus"
            }
          ],
          "text": "Influenza due to identified influenza virus"
        },
        "subject": {
          "reference": "Patient/TW00036"
        },
        "onsetDateTime": "2025-10-17"
      },
      "request": {
        "method": "PUT",
        "url": "Condition/TW00036-condition-0"
      }
    },
    {
      "resource": {
        "resourceType": "Condition",
        "id": "TW00037-condition-0",
        "clinicalStatus": {
          "coding": [
            {
              "system": "http://terminology.hl7.org/CodeSystem/condition-clinical",
              "code": "resolved"
            }
          ]
        },
        "verificationStatus": {
          "coding": [
            {
              "system": "http://terminology.hl7.org/CodeSystem/condition-ver-status",
              "code": "confirmed"
            }
          ]
        },
        "severity": {
          "coding": [
            {
              "system": "http://snomed.info/sct",
              "code": "255604002",
              "display": "Mild"
            }
          ]
        },
        "code": {
          "coding": [
            {
              "system": "http://hl7.org/fhir/sid/icd-10",
              "code": "J09",
              "display": "Influenza due to identified influenza virus"
            }
          ],
          "text": "Influenza due to identified influenza virus"
        },
        "subject": {
          "reference": "Patient/TW00037"
        },
        "onsetDateTime": "2025-08-22"
      },
      "request": {
        "method": "PUT",
        "url": "Condition/TW00037-condition-0"
      }
    },
    {
      "resource": {
        "resourceType": "Condition",
        "id": "TW00038-condition-0",
        "clinicalStatus": {
          "coding": [
            {
              "system": "http://terminology.hl7.org/CodeSystem/condition-clinical",
              "code": "resolved"
            }
          ]
        },
        "verificationStatus": {
          "coding": [
            {
              "system": "http://terminology.hl7.org/CodeSystem/condition-ver-status",
              "code": "confirmed"
            }
          ]
        },
        "severity": {
          "coding": [
            {
              "system": "http://snomed.info/sct",
              "code": "6736007",
              "display": "Moderate"
            }
          ]
        },
        "code": {
          "coding": [
            {
              "system": "http://hl7.org/fhir/sid/icd-10",
              "code": "J11.1",
              "display": "Influenza with other respiratory manifestations, virus not identified"
            }
          ],
          "text": "Influenza with other respiratory manifestations, virus not identified"
        },
        "subject": {
          "reference": "Patient/TW00038"
        },
        "onsetDateTime": "2025-11-30"
      },
      "request": {
        "method": "PUT",
        "url": "Condition/TW00038-condition-0"
      }
    },
    {
      "resource": {
        "resourceType": "Condition",
        "id": "TW00039-condition-0",
        "clinicalStatus": {
          "coding": [
            {
              "system": "http://terminology.hl7.org/CodeSystem/condition-clinical",
              "code": "resolved"
            }
          ]
        },
        "verificationStatus": {
          "coding": [
            {
              "system": "http://terminology.hl7.org/CodeSystem/condition-ver-status",
              "code": "confirmed"
            }
          ]
        },
        "severity": {
          "coding": [
            {
              "system": "http://snomed.info/sct",
              "code": "255604002",
              "display": "Mild"
            }
          ]
        },
        "code": {
          "coding": [
            {
              "system": "http://hl7.org/fhir/sid/icd-10",
              "code": "J10.0",
              "display": "Influenza with pneumonia"
            }
          ],
          "text": "Influenza with pneumonia"
        },
        "subject": {
          "reference": "Patient/TW00039"
        },
        "onsetDateTime": "2025-06-26"
      },
      "request": {
        "method": "PUT",
        "url": "Condition/TW00039-condition-0"
      }
    },
    {
      "resource": {
        "resourceType": "Condition",
        "id": "TW00040-condition-0",
        "clinicalStatus": {
          "coding": [
            {
              "system": "http://terminology.hl7.org/CodeSystem/condition-clinical",
              "code": "resolved"
            }
          ]
        },
        "verificationStatus": {
          "coding": [
            {
              "system": "http://terminology.hl7.org/CodeSystem/condition-ver-status",
              "code": "confirmed"
            }
          ]
        },
        "severity": {
          "coding": [
            {
              "system": "http://snomed.info/sct",
              "code": "255604002",
              "display": "Mild"
            }
          ]
        },
        "code": {
          "coding": [
            {
              "system": "http://hl7.org/fhir/sid/icd-10",
              "code": "J10.1",
              "display": "Influenza with other respiratory manifestations"
            }
          ],
          "text": "Influenza with other respiratory manifestations"
        },
        "subject": {
          "reference": "Patient/TW00040"
        },
        "onsetDateTime": "2025-08-10"
      },
      "request": {
        "method": "PUT",
        "url": "Condition/TW00040-condition-0"
      }
    },
    {
      "resource": {
        "resourceType": "Condition",
        "id": "TW00041-condition-0",
        "clinicalStatus": {
          "coding": [
            {
              "system": "http://terminology.hl7.org/CodeSystem/condition-clinical",
              "code": "resolved"
            }
          ]
        },
        "verificationStatus": {
          "coding": [
            {
              "system": "http://terminology.hl7.org/CodeSystem/condition-ver-status",
              "code": "confirmed"
            }
          ]
        },
        "severity": {
          "coding": [
            {
              "system": "http://snomed.info/sct",
              "code": "255604002",
              "display": "Mild"
            }
          ]
        },
        "code": {
          "coding": [
            {
              "system": "http://hl7.org/fhir/sid/icd-10",
              "code": "J09",
              "display": "Influenza due to identified influenza virus"
            }
          ],
          "text": "Influenza due to identified influenza virus"
        },
        "subject": {
          "reference": "Patient/TW00041"
        },
        "onsetDateTime": "2025-07-30"
      },
      "request": {
        "method": "PUT",
        "url": "Condition/TW00041-condition-0"
      }
    },
    {
      "resource": {
        "resourceType": "Condition",
        "id": "TW00042-condition-0",
        "clinicalStatus": {
          "coding": [
            {
              "system": "http://terminology.hl7.org/CodeSystem/condition-clinical",
              "code": "resolved"
            }
          ]
        },
        "verificationStatus": {
          "coding": [
            {
              "system": "http://terminology.hl7.org/CodeSystem/condition-ver-status",
              "code": "confirmed"
            }
          ]
        },
        "severity": {
          "coding": [
            {
              "system": "http://snomed.info/sct",
              "code": "255604002",
              "display": "Mild"
            }
          ]
        },
        "code": {
          "coding": [
            {
              "system": "http://hl7.org/fhir/sid/icd-10",
              "code": "J10.0",
              "display": "Influenza with pneumonia"
            }
          ],
          "text": "Influenza with pneumonia"
        },
        "subject": {
          "reference": "Patient/TW00042"
        },
        "onsetDateTime": "2025-09-11"
      },
      "request": {
        "method": "PUT",
        "url": "Condition/TW00042-condition-0"
      }
    },
    {
      "resource": {
        "resourceType": "Condition",
        "id": "TW00043-condition-0",
        "clinicalStatus": {
          "coding": [
            {
              "system": "http://terminology.hl7.org/CodeSystem/condition-clinical",
              "code": "resolved"
            }
          ]
        },
        "verificationStatus": {
          "coding": [
            {
              "system": "http://terminology.hl7.org/CodeSystem/condition-ver-status",
              "code": "confirmed"
            }
          ]
        },
        "severity": {
          "coding": [
            {
              "system": "http://snomed.info/sct",
              "code": "6736007",
              "display": "Moderate"
            }
          ]
        },
        "code": {
          "coding": [
            {
              "system": "http://hl7.org/fhir/sid/icd-10",
              "code": "J11.0",
              "display": "Influenza with pneumonia, virus not identified"
            }
          ],
          "text": "Influenza with pneumonia, virus not identified"
        },
        "subject": {
          "reference": "Patient/TW00043"
        },
        "onsetDateTime": "2025-09-26"
      },
      "request": {
        "method": "PUT",
        "url": "Condition/TW00043-condition-0"
      }
    },
    {
      "resource": {
        "resourceType": "Condition",
        "id": "TW00044-condition-0",
        "clinicalStatus": {
          "coding": [
            {
              "system": "http://terminology.hl7.org/CodeSystem/condition-clinical",
              "code": "resolved"
            }
          ]
        },
        "verificationStatus": {
          "coding": [
            {
              "system": "http://terminology.hl7.org/CodeSystem/condition-ver-status",
              "code": "confirmed"
            }
          ]
        },
        "severity": {
          "coding": [
            {
              "system": "http://snomed.info/sct",
              "code": "255604002",
              "display": "Mild"
            }
          ]
        },
        "code": {
          "coding": [
            {
              "system": "http://hl7.org/fhir/sid/icd-10",
              "code": "J11.1",
              "display": "Influenza with other respiratory manifestations, virus not identified"
            }
          ],
          "text": "Influenza with other respiratory manifestations, virus not identified"
        },
        "subject": {
          "reference": "Patient/TW00044"
        },
        "onsetDateTime": "2025-08-17"
      },
      "request": {
        "method": "PUT",
        "url": "Condition/TW00044-condition-0"
      }
    },
    {
      "resource": {
        "resourceType": "Condition",
        "id": "TW00045-condition-0",
        "clinicalStatus": {
          "coding": [
            {
              "system": "http://terminology.hl7.org/CodeSystem/condition-clinical",
              "code": "resolved"
            }
          ]
        },
        "verificationStatus": {
          "coding": [
            {
              "system": "http://terminology.hl7.org/CodeSystem/condition-ver-status",
              "code": "confirmed"
            }
          ]
        },
        "severity": {
          "coding": [
            {
              "system": "http://snomed.info/sct",
              "code": "255604002",
              "display": "Mild"
            }
          ]
        },
        "code": {
          "coding": [
            {
              "system": "http://hl7.org/fhir/sid/icd-10",
              "code": "J10.0",
              "display": "Influenza with pneumonia"
            }
          ],
          "text": "Influenza with pneumonia"
        },
        "subject": {
          "reference": "Patient/TW00045"
        },
        "onsetDateTime": "2025-10-01"
      },
      "request": {
        "method": "PUT",
        "url": "Condition/TW00045-condition-0"
      }
    },
    {
      "resource": {
        "resourceType": "Condition",
        "id": "TW00046-condition-0",
        "clinicalStatus": {
          "coding": [
            {
              "system": "http://terminology.hl7.org/CodeSystem/condition-clinical",
              "code": "resolved"
            }
          ]
        },
        "verificationStatus": {
          "coding": [
            {
              "system": "http://terminology.hl7.org/CodeSystem/condition-ver-status",
              "code": "confirmed"
            }
          ]
        },
        "severity": {
          "coding": [
            {
              "system": "http://snomed.info/sct",
              "code": "255604002",
              "display": "Mild"
            }
          ]
        },
        "code": {
          "coding": [
            {
              "system": "http://hl7.org/fhir/sid/icd-10",
              "code": "J11.1",
              "display": "Influenza with other respiratory manifestations, virus not identified"
            }
          ],
          "text": "Influenza with other respiratory manifestations, virus not identified"
        },
        "subject": {
          "reference": "Patient/TW00046"
        },
        "onsetDateTime": "2025-09-19"
      },
      "request": {
        "method": "PUT",
        "url": "Condition/TW00046-condition-0"
      }
    },
    {
      "resource": {
        "resourceType": "Condition",
        "id": "TW00047-condition-0",
        "clinicalStatus": {
          "coding": [
            {
              "system": "http://terminology.hl7.org/CodeSystem/condition-clinical",
              "code": "resolved"
            }
          ]
        },
        "verificationStatus": {
          "coding": [
            {
              "system": "http://terminology.hl7.org/CodeSystem/condition-ver-status",
              "code": "confirmed"
            }
          ]
        },
        "severity": {
          "coding": [
            {
              "system": "http://snomed.info/sct",
              "code": "255604002",
              "display": "Mild"
            }
          ]
        },
        "code": {
          "coding": [
            {
              "system": "http://hl7.org/fhir/sid/icd-10",
              "code": "J11.0",
              "display": "Influenza with pneumonia, virus not identified"
            }
          ],
          "text": "Influenza with pneumonia, virus not identified"
        },
        "subject": {
          "reference": "Patient/TW00047"
        },
        "onsetDateTime": "2025-10-08"
      },
      "request": {
        "method": "PUT",
        "url": "Condition/TW00047-condition-0"
      }
    },
    {
      "resource": {
        "resourceType": "Condition",
        "id": "TW00048-condition-0",
        "clinicalStatus": {
          "coding": [
            {
              "system": "http://terminology.hl7.org/CodeSystem/condition-clinical",
              "code": "resolved"
            }
          ]
        },
        "verificationStatus": {
          "coding": [
            {
              "system": "http://terminology.hl7.org/CodeSystem/condition-ver-status",
              "code": "confirmed"
            }
          ]
        },
        "severity": {
          "coding": [
            {
              "system": "http://snomed.info/sct",
              "code": "255604002",
              "display": "Mild"
            }
          ]
        },
        "code": {
          "coding": [
            {
              "system": "http://hl7.org/fhir/sid/icd-10",
              "code": "J11.0",
              "display": "Influenza with pneumonia, virus not identified"
            }
          ],
          "text": "Influenza with pneumonia, virus not identified"
        },
        "subject": {
          "reference": "Patient/TW00048"
        },
        "onsetDateTime": "2025-10-04"
      },
      "request": {
        "method": "PUT",
        "url": "Condition/TW00048-condition-0"
      }
    },
    {
      "resource": {
        "resourceType": "Condition",
        "id": "TW00049-condition-0",
        "clinicalStatus": {
          "coding": [
            {
              "system": "http://terminology.hl7.org/CodeSystem/condition-clinical",
              "code": "resolved"
            }
          ]
        },
        "verificationStatus": {
          "coding": [
            {
              "system": "http://terminology.hl7.org/CodeSystem/condition-ver-status",
              "code": "confirmed"
            }
          ]
        },
        "severity": {
          "coding": [
            {
              "system": "http://snomed.info/sct",
              "code": "6736007",
              "display": "Moderate"
            }
          ]
        },
        "code": {
          "coding": [
            {
              "system": "http://hl7.org/fhir/sid/icd-10",
              "code": "J10.0",
              "display": "Influenza with pneumonia"
            }
          ],
          "text": "Influenza with pneumonia"
        },
        "subject": {
          "reference": "Patient/TW00049"
        },
        "onsetDateTime": "2025-07-28"
      },
      "request": {
        "method": "PUT",
        "url": "Condition/TW00049-condition-0"
      }
    },
    {
      "resource": {
        "resourceType": "Condition",
        "id": "TW00050-condition-0",
        "clinicalStatus": {
          "coding": [
            {
              "system": "http://terminology.hl7.org/CodeSystem/condition-clinical",
              "code": "resolved"
            }
          ]
        },
        "verificationStatus": {
          "coding": [
            {
              "system": "http://terminology.hl7.org/CodeSystem/condition-ver-status",
              "code": "confirmed"
            }
          ]
        },
        "severity": {
          "coding": [
            {
              "system": "http://snomed.info/sct",
              "code": "24484000",
              "display": "Severe"
            }
          ]
        },
        "code": {
          "coding": [
            {
              "system": "http://hl7.org/fhir/sid/icd-10",
              "code": "J11.1",
              "display": "Influenza with other respiratory manifestations, virus not identified"
            }
          ],
          "text": "Influenza with other respiratory manifestations, virus not identified"
        },
        "subject": {
          "reference": "Patient/TW00050"
        },
        "onsetDateTime": "2025-10-01"
      },
      "request": {
        "method": "PUT",
        "url": "Condition/TW00050-condition-0"
      }
    },
    {
      "resource": {
        "resourceType": "Condition",
        "id": "TW00051-condition-0",
        "clinicalStatus": {
          "coding": [
            {
              "system": "http://terminology.hl7.org/CodeSystem/condition-clinical",
              "code": "resolved"
            }
          ]
        },
        "verificationStatus": {
          "coding": [
            {
              "system": "http://terminology.hl7.org/CodeSystem/condition-ver-status",
              "code": "confirmed"
            }
          ]
        },
        "severity": {
          "coding": [
            {
              "system": "http://snomed.info/sct",
              "code": "255604002",
              "display": "Mild"
            }
          ]
        },
        "code": {
          "coding": [
            {
              "system": "http://hl7.org/fhir/sid/icd-10",
              "code": "J11.1",
              "display": "Influenza with other respiratory manifestations, virus not identified"
            }
          ],
          "text": "Influenza with other respiratory manifestations, virus not identified"
        },
        "subject": {
          "reference": "Patient/TW00051"
        },
        "onsetDateTime": "2025-09-10"
      },
      "request": {
        "method": "PUT",
        "url": "Condition/TW00051-condition-0"
      }
    },
    {
      "resource": {
        "resourceType": "Condition",
        "id": "TW00052-condition-0",
        "clinicalStatus": {
          "coding": [
            {
              "system": "http://terminology.hl7.org/CodeSystem/condition-clinical",
              "code": "resolved"
            }
          ]
        },
        "verificationStatus": {
          "coding": [
            {
              "system": "http://terminology.hl7.org/CodeSystem/condition-ver-status",
              "code": "confirmed"
            }
          ]
        },
        "severity": {
          "coding": [
            {
              "system": "http://snomed.info/sct",
              "code": "255604002",
              "display": "Mild"
            }
          ]
        },
        "code": {
          "coding": [
            {
              "system": "http://hl7.org/fhir/sid/icd-10",
              "code": "J11.1",
              "display": "Influenza with other respiratory manifestations, virus not identified"
            }
          ],
          "text": "Influenza with other respiratory manifestations, virus not identified"
        },
        "subject": {
          "reference": "Patient/TW00052"
        },
        "onsetDateTime": "2025-06-17"
      },
      "request": {
        "method": "PUT",
        "url": "Condition/TW00052-condition-0"
      }
    },
    {
      "resource": {
        "resourceType": "Condition",
        "id": "TW00053-condition-0",
        "clinicalStatus": {
          "coding": [
            {
              "system": "http://terminology.hl7.org/CodeSystem/condition-clinical",
              "code": "resolved"
            }
          ]
        },
        "verificationStatus": {
          "coding": [
            {
              "system": "http://terminology.hl7.org/CodeSystem/condition-ver-status",
              "code": "confirmed"
            }
          ]
        },
        "severity": {
          "coding": [
            {
              "system": "http://snomed.info/sct",
              "code": "255604002",
              "display": "Mild"
            }
          ]
        },
        "code": {
          "coding": [
            {
              "system": "http://hl7.org/fhir/sid/icd-10",
              "code": "J10.1",
              "display": "Influenza with other respiratory manifestations"
            }
          ],
          "text": "Influenza with other respiratory manifestations"
        },
        "subject": {
          "reference": "Patient/TW00053"
        },
        "onsetDateTime": "2025-09-07"
      },
      "request": {
        "method": "PUT",
        "url": "Condition/TW00053-condition-0"
      }
    },
    {
      "resource": {
        "resourceType": "Condition",
        "id": "TW00054-condition-0",
        "clinicalStatus": {
          "coding": [
            {
              "system": "http://terminology.hl7.org/CodeSystem/condition-clinical",
              "code": "resolved"
            }
          ]
        },
        "verificationStatus": {
          "coding": [
            {
              "system": "http://terminology.hl7.org/CodeSystem/condition-ver-status",
              "code": "confirmed"
            }
          ]
        },
        "severity": {
          "coding": [
            {
              "system": "http://snomed.info/sct",
              "code": "6736007",
              "display": "Moderate"
            }
          ]
        },
        "code": {
          "coding": [
            {
              "system": "http://hl7.org/fhir/sid/icd-10",
              "code": "J10.0",
              "display": "Influenza with pneumonia"
            }
          ],
          "text": "Influenza with pneumonia"
        },
        "subject": {
          "reference": "Patient/TW00054"
        },
        "onsetDateTime": "2025-06-11"
      },
      "request": {
        "method": "PUT",
        "url": "Condition/TW00054-condition-0"
      }
    },
    {
      "resource": {
        "resourceType": "Condition",
        "id": "TW00055-condition-0",
        "clinicalStatus": {
          "coding": [
            {
              "system": "http://terminology.hl7.org/CodeSystem/condition-clinical",
              "code": "resolved"
            }
          ]
        },
        "verificationStatus": {
          "coding": [
            {
              "system": "http://terminology.hl7.org/CodeSystem/condition-ver-status",
              "code": "confirmed"
            }
          ]
        },
        "severity": {
          "coding": [
            {
              "system": "http://snomed.info/sct",
              "code": "24484000",
              "display": "Severe"
            }
          ]
        },
        "code": {
          "coding": [
            {
              "system": "http://hl7.org/fhir/sid/icd-10",
              "code": "J10.1",
              "display": "Influenza with other respiratory manifestations"
            }
          ],
          "text": "Influenza with other respiratory manifestations"
        },
        "subject": {
          "reference": "Patient/TW00055"
        },
        "onsetDateTime": "2025-10-01"
      },
      "request": {
        "method": "PUT",
        "url": "Condition/TW00055-condition-0"
      }
    },
    {
      "resource": {
        "resourceType": "Condition",
        "id": "TW00056-condition-0",
        "clinicalStatus": {
          "coding": [
            {
              "system": "http://terminology.hl7.org/CodeSystem/condition-clinical",
              "code": "resolved"
            }
          ]
        },
        "verificationStatus": {
          "coding": [
            {
              "system": "http://terminology.hl7.org/CodeSystem/condition-ver-status",
              "code": "confirmed"
            }
          ]
        },
        "severity": {
          "coding": [
            {
              "system": "http://snomed.info/sct",
              "code": "24484000",
              "display": "Severe"
            }
          ]
        },
        "code": {
          "coding": [
            {
              "system": "http://hl7.org/fhir/sid/icd-10",
              "code": "J09",
              "display": "Influenza due to identified influenza virus"
            }
          ],
          "text": "Influenza due to identified influenza virus"
        },
        "subject": {
          "reference": "Patient/TW00056"
        },
        "onsetDateTime": "2025-10-06"
      },
      "request": {
        "method": "PUT",
        "url": "Condition/TW00056-condition-0"
      }
    },
    {
      "resource": {
        "resourceType": "Condition",
        "id": "TW00057-condition-0",
        "clinicalStatus": {
          "coding": [
            {
              "system": "http://terminology.hl7.org/CodeSystem/condition-clinical",
              "code": "resolved"
            }
          ]
        },
        "verificationStatus": {
          "coding": [
            {
              "system": "http://terminology.hl7.org/CodeSystem/condition-ver-status",
              "code": "confirmed"
            }
          ]
        },
        "severity": {
          "coding": [
            {
              "system": "http://snomed.info/sct",
              "code": "255604002",
              "display": "Mild"
            }
          ]
        },
        "code": {
          "coding": [
            {
              "system": "http://hl7.org/fhir/sid/icd-10",
              "code": "J11.0",
              "display": "Influenza with pneumonia, virus not identified"
            }
          ],
          "text": "Influenza with pneumonia, virus not identified"
        },
        "subject": {
          "reference": "Patient/TW00057"
        },
        "onsetDateTime": "2025-10-19"
      },
      "request": {
        "method": "PUT",
        "url": "Condition/TW00057-condition-0"
      }
    },
    {
      "resource": {
        "resourceType": "Condition",
        "id": "TW00058-condition-0",
        "clinicalStatus": {
          "coding": [
            {
              "system": "http://terminology.hl7.org/CodeSystem/condition-clinical",
              "code": "resolved"
            }
          ]
        },
        "verificationStatus": {
          "coding": [
            {
              "system": "http://terminology.hl7.org/CodeSystem/condition-ver-status",
              "code": "confirmed"
            }
          ]
        },
        "severity": {
          "coding": [
            {
              "system": "http://snomed.info/sct",
              "code": "255604002",
              "display": "Mild"
            }
          ]
        },
        "code": {
          "coding": [
            {
              "system": "http://hl7.org/fhir/sid/icd-10",
              "code": "J10.0",
              "display": "Influenza with pneumonia"
            }
          ],
          "text": "Influenza with pneumonia"
        },
        "subject": {
          "reference": "Patient/TW00058"
        },
        "onsetDateTime": "2025-09-23"
      },
      "request": {
        "method": "PUT",
        "url": "Condition/TW00058-condition-0"
      }
    },
    {
      "resource": {
        "resourceType": "Condition",
        "id": "TW00059-condition-0",
        "clinicalStatus": {
          "coding": [
            {
              "system": "http://terminology.hl7.org/CodeSystem/condition-clinical",
              "code": "resolved"
            }
          ]
        },
        "verificationStatus": {
          "coding": [
            {
              "system": "http://terminology.hl7.org/CodeSystem/condition-ver-status",
              "code": "confirmed"
            }
          ]
        },
        "severity": {
          "coding": [
            {
              "system": "http://snomed.info/sct",
              "code": "255604002",
              "display": "Mild"
            }
          ]
        },
        "code": {
          "coding": [
            {
              "system": "http://hl7.org/fhir/sid/icd-10",
              "code": "J09",
              "display": "Influenza due to identified influenza virus"
            }
          ],
          "text": "Influenza due to identified influenza virus"
        },
        "subject": {
          "reference": "Patient/TW00059"
        },
        "onsetDateTime": "2025-10-24"
      },
      "request": {
        "method": "PUT",
        "url": "Condition/TW00059-condition-0"
      }
    },
    {
      "resource": {
        "resourceType": "Condition",
        "id": "TW00060-condition-0",
        "clinicalStatus": {
          "coding": [
            {
              "system": "http://terminology.hl7.org/CodeSystem/condition-clinical",
              "code": "resolved"
            }
          ]
        },
        "verificationStatus": {
          "coding": [
            {
              "system": "http://terminology.hl7.org/CodeSystem/condition-ver-status",
              "code": "confirmed"
            }
          ]
        },
        "severity": {
          "coding": [
            {
              "system": "http://snomed.info/sct",
              "code": "255604002",
              "display": "Mild"
            }
          ]
        },
        "code": {
          "coding": [
            {
              "system": "http://hl7.org/fhir/sid/icd-10",
              "code": "A87.0",
              "display": "Enteroviral meningitis"
            }
          ],
          "text": "Enteroviral meningitis"
        },
        "subject": {
          "reference": "Patient/TW00060"
        },
        "onsetDateTime": "2025-06-30"
      },
      "request": {
        "method": "PUT",
        "url": "Condition/TW00060-condition-0"
      }
    },
    {
      "resource": {
        "resourceType": "Condition",
        "id": "TW00061-condition-0",
        "clinicalStatus": {
          "coding": [
            {
              "system": "http://terminology.hl7.org/CodeSystem/condition-clinical",
              "code": "resolved"
            }
          ]
        },
        "verificationStatus": {
          "coding": [
            {
              "system": "http://terminology.hl7.org/CodeSystem/condition-ver-status",
              "code": "confirmed"
            }
          ]
        },
        "severity": {
          "coding": [
            {
              "system": "http://snomed.info/sct",
              "code": "255604002",
              "display": "Mild"
            }
          ]
        },
        "code": {
          "coding": [
            {
              "system": "http://hl7.org/fhir/sid/icd-10",
              "code": "B34.1",
              "display": "Enterovirus infection"
            }
          ],
          "text": "Enterovirus infection"
        },
        "subject": {
          "reference": "Patient/TW00061"
        },
        "onsetDateTime": "2025-06-16"
      },
      "request": {
        "method": "PUT",
        "url": "Condition/TW00061-condition-0"
      }
    },
    {
      "resource": {
        "resourceType": "Condition",
        "id": "TW00062-condition-0",
        "clinicalStatus": {
          "coding": [
            {
              "system": "http://terminology.hl7.org/CodeSystem/condition-clinical",
              "code": "resolved"
            }
          ]
        },
        "verificationStatus": {
          "coding": [
            {
              "system": "http://terminology.hl7.org/CodeSystem/condition-ver-status",
              "code": "confirmed"
            }
          ]
        },
        "severity": {
          "coding": [
            {
              "system": "http://snomed.info/sct",
              "code": "24484000",
              "display": "Severe"
            }
          ]
        },
        "code": {
          "coding": [
            {
              "system": "http://hl7.org/fhir/sid/icd-10",
              "code": "B08.5",
              "display": "Enteroviral vesicular pharyngitis"
            }
          ],
          "text": "Enteroviral vesicular pharyngitis"
        },
        "subject": {
          "reference": "Patient/TW00062"
        },
        "onsetDateTime": "2025-09-30"
      },
      "request": {
        "method": "PUT",
        "url": "Condition/TW00062-condition-0"
      }
    },
    {
      "resource": {
        "resourceType": "Condition",
        "id": "TW00063-condition-0",
        "clinicalStatus": {
          "coding": [
            {
              "system": "http://terminology.hl7.org/CodeSystem/condition-clinical",
              "code": "resolved"
            }
          ]
        },
        "verificationStatus": {
          "coding": [
            {
              "system": "http://terminology.hl7.org/CodeSystem/condition-ver-status",
              "code": "confirmed"
            }
          ]
        },
        "severity": {
          "coding": [
            {
              "system": "http://snomed.info/sct",
              "code": "255604002",
              "display": "Mild"
            }
          ]
        },
        "code": {
          "coding": [
            {
              "system": "http://hl7.org/fhir/sid/icd-10",
              "code": "A87.0",
              "display": "Enteroviral meningitis"
            }
          ],
          "text": "Enteroviral meningitis"
        },
        "subject": {
          "reference": "Patient/TW00063"
        },
        "onsetDateTime": "2025-10-16"
      },
      "request": {
        "method": "PUT",
        "url": "Condition/TW00063-condition-0"
      }
    },
    {
      "resource": {
        "resourceType": "Condition",
        "id": "TW00064-condition-0",
        "clinicalStatus": {
          "coding": [
            {
              "system": "http://terminology.hl7.org/CodeSystem/condition-clinical",
              "code": "resolved"
            }
          ]
        },
        "verificationStatus": {
          "coding": [
            {
              "system": "http://terminology.hl7.org/CodeSystem/condition-ver-status",
              "code": "confirmed"
            }
          ]
        },
        "severity": {
          "coding": [
            {
              "system": "http://snomed.info/sct",
              "code": "6736007",
              "display": "Moderate"
            }
          ]
        },
        "code": {
          "coding": [
            {
              "system": "http://hl7.org/fhir/sid/icd-10",
              "code": "B08.5",
              "display": "Enteroviral vesicular pharyngitis"
            }
          ],
          "text": "Enteroviral vesicular pharyngitis"
        },
        "subject": {
          "reference": "Patient/TW00064"
        },
        "onsetDateTime": "2025-08-09"
      },
      "request": {
        "method": "PUT",
        "url": "Condition/TW00064-condition-0"
      }
    },
    {
      "resource": {
        "resourceType": "Condition",
        "id": "TW00065-condition-0",
        "clinicalStatus": {
          "coding": [
            {
              "system": "http://terminology.hl7.org/CodeSystem/condition-clinical",
              "code": "resolved"
            }
          ]
        },
        "verificationStatus": {
          "coding": [
            {
              "system": "http://terminology.hl7.org/CodeSystem/condition-ver-status",
              "code": "confirmed"
            }
          ]
        },
        "severity": {
          "coding": [
            {
              "system": "http://snomed.info/sct",
              "code": "255604002",
              "display": "Mild"
            }
          ]
        },
        "code": {
          "coding": [
            {
              "system": "http://hl7.org/fhir/sid/icd-10",
              "code": "A87.0",
              "display": "Enteroviral meningitis"
            }
          ],
          "text": "Enteroviral meningitis"
        },
        "subject": {
          "reference": "Patient/TW00065"
        },
        "onsetDateTime": "2025-09-16"
      },
      "request": {
        "method": "PUT",
        "url": "Condition/TW00065-condition-0"
      }
    },
    {
      "resource": {
        "resourceType": "Condition",
        "id": "TW00066-condition-0",
        "clinicalStatus": {
          "coding": [
            {
              "system": "http://terminology.hl7.org/CodeSystem/condition-clinical",
              "code": "resolved"
            }
          ]
        },
        "verificationStatus": {
          "coding": [
            {
              "system": "http://terminology.hl7.org/CodeSystem/condition-ver-status",
              "code": "confirmed"
            }
          ]
        },
        "severity": {
          "coding": [
            {
              "system": "http://snomed.info/sct",
              "code": "255604002",
              "display": "Mild"
            }
          ]
        },
        "code": {
          "coding": [
            {
              "system": "http://hl7.org/fhir/sid/icd-10",
              "code": "B08.4",
              "display": "Enteroviral vesicular stomatitis with exanthem"
            }
          ],
          "text": "Enteroviral vesicular stomatitis with exanthem"
        },
        "subject": {
          "reference": "Patient/TW00066"
        },
        "onsetDateTime": "2025-10-05"
      },
      "request": {
        "method": "PUT",
        "url": "Condition/TW00066-condition-0"
      }
    },
    {
      "resource": {
        "resourceType": "Condition",
        "id": "TW00067-condition-0",
        "clinicalStatus": {
          "coding": [
            {
              "system": "http://terminology.hl7.org/CodeSystem/condition-clinical",
              "code": "resolved"
            }
          ]
        },
        "verificationStatus": {
          "coding": [
            {
              "system": "http://terminology.hl7.org/CodeSystem/condition-ver-status",
              "code": "confirmed"
            }
          ]
        },
        "severity": {
          "coding": [
            {
              "system": "http://snomed.info/sct",
              "code": "6736007",
              "display": "Moderate"
            }
          ]
        },
        "code": {
          "coding": [
            {
              "system": "http://hl7.org/fhir/sid/icd-10",
              "code": "B08.5",
              "display": "Enteroviral vesicular pharyngitis"
            }
          ],
          "text": "Enteroviral vesicular pharyngitis"
        },
        "subject": {
          "reference": "Patient/TW00067"
        },
        "onsetDateTime": "2025-07-16"
      },
      "request": {
        "method": "PUT",
        "url": "Condition/TW00067-condition-0"
      }
    },
    {
      "resource": {
        "resourceType": "Condition",
        "id": "TW00068-condition-0",
        "clinicalStatus": {
          "coding": [
            {
              "system": "http://terminology.hl7.org/CodeSystem/condition-clinical",
              "code": "resolved"
            }
          ]
        },
        "verificationStatus": {
          "coding": [
            {
              "system": "http://terminology.hl7.org/CodeSystem/condition-ver-status",
              "code": "confirmed"
            }
          ]
        },
        "severity": {
          "coding": [
            {
              "system": "http://snomed.info/sct",
              "code": "255604002",
              "display": "Mild"
            }
          ]
        },
        "code": {
          "coding": [
            {
              "system": "http://hl7.org/fhir/sid/icd-10",
              "code": "A87.0",
              "display": "Enteroviral meningitis"
            }
          ],
          "text": "Enteroviral meningitis"
        },
        "subject": {
          "reference": "Patient/TW00068"
        },
        "onsetDateTime": "2025-07-24"
      },
      "request": {
        "method": "PUT",
        "url": "Condition/TW00068-condition-0"
      }
    },
    {
      "resource": {
        "resourceType": "Condition",
        "id": "TW00069-condition-0",
        "clinicalStatus": {
          "coding": [
            {
              "system": "http://terminology.hl7.org/CodeSystem/condition-clinical",
              "code": "resolved"
            }
          ]
        },
        "verificationStatus": {
          "coding": [
            {
              "system": "http://terminology.hl7.org/CodeSystem/condition-ver-status",
              "code": "confirmed"
            }
          ]
        },
        "severity": {
          "coding": [
            {
              "system": "http://snomed.info/sct",
              "code": "255604002",
              "display": "Mild"
            }
          ]
        },
        "code": {
          "coding": [
            {
              "system": "http://hl7.org/fhir/sid/icd-10",
              "code": "A87.0",
              "display": "Enteroviral meningitis"
            }
          ],
          "text": "Enteroviral meningitis"
        },
        "subject": {
          "reference": "Patient/TW00069"
        },
        "onsetDateTime": "2025-06-11"
      },
      "request": {
        "method": "PUT",
        "url": "Condition/TW00069-condition-0"
      }
    },
    {
      "resource": {
        "resourceType": "Condition",
        "id": "TW00070-condition-0",
        "clinicalStatus": {
          "coding": [
            {
              "system": "http://terminology.hl7.org/CodeSystem/condition-clinical",
              "code": "resolved"
            }
          ]
        },
        "verificationStatus": {
          "coding": [
            {
              "system": "http://terminology.hl7.org/CodeSystem/condition-ver-status",
              "code": "confirmed"
            }
          ]
        },
        "severity": {
          "coding": [
            {
              "system": "http://snomed.info/sct",
              "code": "255604002",
              "display": "Mild"
            }
          ]
        },
        "code": {
          "coding": [
            {
              "system": "http://hl7.org/fhir/sid/icd-10",
              "code": "B08.5",
              "display": "Enteroviral vesicular pharyngitis"
            }
          ],
          "text": "Enteroviral vesicular pharyngitis"
        },
        "subject": {
          "reference": "Patient/TW00070"
        },
        "onsetDateTime": "2025-11-08"
      },
      "request": {
        "method": "PUT",
        "url": "Condition/TW00070-condition-0"
      }
    },
    {
      "resource": {
        "resourceType": "Condition",
        "id": "TW00071-condition-0",
        "clinicalStatus": {
          "coding": [
            {
              "system": "http://terminology.hl7.org/CodeSystem/condition-clinical",
              "code": "resolved"
            }
          ]
        },
        "verificationStatus": {
          "coding": [
            {
              "system": "http://terminology.hl7.org/CodeSystem/condition-ver-status",
              "code": "confirmed"
            }
          ]
        },
        "severity": {
          "coding": [
            {
              "system": "http://snomed.info/sct",
              "code": "255604002",
              "display": "Mild"
            }
          ]
        },
        "code": {
          "coding": [
            {
              "system": "http://hl7.org/fhir/sid/icd-10",
              "code": "B08.5",
              "display": "Enteroviral vesicular pharyngitis"
            }
          ],
          "text": "Enteroviral vesicular pharyngitis"
        },
        "subject": {
          "reference": "Patient/TW00071"
        },
        "onsetDateTime": "2025-11-16"
      },
      "request": {
        "method": "PUT",
        "url": "Condition/TW00071-condition-0"
      }
    },
    {
      "resource": {
        "resourceType": "Condition",
        "id": "TW00072-condition-0",
        "clinicalStatus": {
          "coding": [
            {
              "system": "http://terminology.hl7.org/CodeSystem/condition-clinical",
              "code": "resolved"
            }
          ]
        },
        "verificationStatus": {
          "coding": [
            {
              "system": "http://terminology.hl7.org/CodeSystem/condition-ver-status",
              "code": "confirmed"
            }
          ]
        },
        "severity": {
          "coding": [
            {
              "system": "http://snomed.info/sct",
              "code": "255604002",
              "display": "Mild"
            }
          ]
        },
        "code": {
          "coding": [
            {
              "system": "http://hl7.org/fhir/sid/icd-10",
              "code": "B34.1",
              "display": "Enterovirus infection"
            }
          ],
          "text": "Enterovirus infection"
        },
        "subject": {
          "reference": "Patient/TW00072"
        },
        "onsetDateTime": "2025-07-12"
      },
      "request": {
        "method": "PUT",
        "url": "Condition/TW00072-condition-0"
      }
    },
    {
      "resource": {
        "resourceType": "Condition",
        "id": "TW00073-condition-0",
        "clinicalStatus": {
          "coding": [
            {
              "system": "http://terminology.hl7.org/CodeSystem/condition-clinical",
              "code": "resolved"
            }
          ]
        },
        "verificationStatus": {
          "coding": [
            {
              "system": "http://terminology.hl7.org/CodeSystem/condition-ver-status",
              "code": "confirmed"
            }
          ]
        },
        "severity": {
          "coding": [
            {
              "system": "http://snomed.info/sct",
              "code": "6736007",
              "display": "Moderate"
            }
          ]
        },
        "code": {
          "coding": [
            {
              "system": "http://hl7.org/fhir/sid/icd-10",
              "code": "B34.1",
              "display": "Enterovirus infection"
            }
          ],
          "text": "Enterovirus infection"
        },
        "subject": {
          "reference": "Patient/TW00073"
        },
        "onsetDateTime": "2025-09-08"
      },
      "request": {
        "method": "PUT",
        "url": "Condition/TW00073-condition-0"
      }
    },
    {
      "resource": {
        "resourceType": "Condition",
        "id": "TW00074-condition-0",
        "clinicalStatus": {
          "coding": [
            {
              "system": "http://terminology.hl7.org/CodeSystem/condition-clinical",
              "code": "resolved"
            }
          ]
        },
        "verificationStatus": {
          "coding": [
            {
              "system": "http://terminology.hl7.org/CodeSystem/condition-ver-status",
              "code": "confirmed"
            }
          ]
        },
        "severity": {
          "coding": [
            {
              "system": "http://snomed.info/sct",
              "code": "6736007",
              "display": "Moderate"
            }
          ]
        },
        "code": {
          "coding": [
            {
              "system": "http://hl7.org/fhir/sid/icd-10",
              "code": "B34.1",
              "display": "Enterovirus infection"
            }
          ],
          "text": "Enterovirus infection"
        },
        "subject": {
          "reference": "Patient/TW00074"
        },
        "onsetDateTime": "2025-08-25"
      },
      "request": {
        "method": "PUT",
        "url": "Condition/TW00074-condition-0"
      }
    },
    {
      "resource": {
        "resourceType": "Condition",
        "id": "TW00075-condition-0",
        "clinicalStatus": {
          "coding": [
            {
              "system": "http://terminology.hl7.org/CodeSystem/condition-clinical",
              "code": "resolved"
            }
          ]
        },
        "verificationStatus": {
          "coding": [
            {
              "system": "http://terminology.hl7.org/CodeSystem/condition-ver-status",
              "code": "confirmed"
            }
          ]
        },
        "severity": {
          "coding": [
            {
              "system": "http://snomed.info/sct",
              "code": "6736007",
              "display": "Moderate"
            }
          ]
        },
        "code": {
          "coding": [
            {
              "system": "http://hl7.org/fhir/sid/icd-10",
              "code": "B08.5",
              "display": "Enteroviral vesicular pharyngitis"
            }
          ],
          "text": "Enteroviral vesicular pharyngitis"
        },
        "subject": {
          "reference": "Patient/TW00075"
        },
        "onsetDateTime": "2025-08-26"
      },
      "request": {
        "method": "PUT",
        "url": "Condition/TW00075-condition-0"
      }
    },
    {
      "resource": {
        "resourceType": "Condition",
        "id": "TW00076-condition-0",
        "clinicalStatus": {
          "coding": [
            {
              "system": "http://terminology.hl7.org/CodeSystem/condition-clinical",
              "code": "resolved"
            }
          ]
        },
        "verificationStatus": {
          "coding": [
            {
              "system": "http://terminology.hl7.org/CodeSystem/condition-ver-status",
              "code": "confirmed"
            }
          ]
        },
        "severity": {
          "coding": [
            {
              "system": "http://snomed.info/sct",
              "code": "255604002",
              "display": "Mild"
            }
          ]
        },
        "code": {
          "coding": [
            {
              "system": "http://hl7.org/fhir/sid/icd-10",
              "code": "A87.0",
              "display": "Enteroviral meningitis"
            }
          ],
          "text": "Enteroviral meningitis"
        },
        "subject": {
          "reference": "Patient/TW00076"
        },
        "onsetDateTime": "2025-09-04"
      },
      "request": {
        "method": "PUT",
        "url": "Condition/TW00076-condition-0"
      }
    },
    {
      "resource": {
        "resourceType": "Condition",
        "id": "TW00077-condition-0",
        "clinicalStatus": {
          "coding": [
            {
              "system": "http://terminology.hl7.org/CodeSystem/condition-clinical",
              "code": "resolved"
            }
          ]
        },
        "verificationStatus": {
          "coding": [
            {
              "system": "http://terminology.hl7.org/CodeSystem/condition-ver-status",
              "code": "confirmed"
            }
          ]
        },
        "severity": {
          "coding": [
            {
              "system": "http://snomed.info/sct",
              "code": "255604002",
              "display": "Mild"
            }
          ]
        },
        "code": {
          "coding": [
            {
              "system": "http://hl7.org/fhir/sid/icd-10",
              "code": "B08.4",
              "display": "Enteroviral vesicular stomatitis with exanthem"
            }
          ],
          "text": "Enteroviral vesicular stomatitis with exanthem"
        },
        "subject": {
          "reference": "Patient/TW00077"
        },
        "onsetDateTime": "2025-11-13"
      },
      "request": {
        "method": "PUT",
        "url": "Condition/TW00077-condition-0"
      }
    },
    {
      "resource": {
        "resourceType": "Condition",
        "id": "TW00078-condition-0",
        "clinicalStatus": {
          "coding": [
            {
              "system": "http://terminology.hl7.org/CodeSystem/condition-clinical",
              "code": "resolved"
            }
          ]
        },
        "verificationStatus": {
          "coding": [
            {
              "system": "http://terminology.hl7.org/CodeSystem/condition-ver-status",
              "code": "confirmed"
            }
          ]
        },
        "severity": {
          "coding": [
            {
              "system": "http://snomed.info/sct",
              "code": "24484000",
              "display": "Severe"
            }
          ]
        },
        "code": {
          "coding": [
            {
              "system": "http://hl7.org/fhir/sid/icd-10",
              "code": "A87.0",
              "display": "Enteroviral meningitis"
            }
          ],
          "text": "Enteroviral meningitis"
        },
        "subject": {
          "reference": "Patient/TW00078"
        },
        "onsetDateTime": "2025-10-29"
      },
      "request": {
        "method": "PUT",
        "url": "Condition/TW00078-condition-0"
      }
    },
    {
      "resource": {
        "resourceType": "Condition",
        "id": "TW00079-condition-0",
        "clinicalStatus": {
          "coding": [
            {
              "system": "http://terminology.hl7.org/CodeSystem/condition-clinical",
              "code": "resolved"
            }
          ]
        },
        "verificationStatus": {
          "coding": [
            {
              "system": "http://terminology.hl7.org/CodeSystem/condition-ver-status",
              "code": "confirmed"
            }
          ]
        },
        "severity": {
          "coding": [
            {
              "system": "http://snomed.info/sct",
              "code": "255604002",
              "display": "Mild"
            }
          ]
        },
        "code": {
          "coding": [
            {
              "system": "http://hl7.org/fhir/sid/icd-10",
              "code": "B08.4",
              "display": "Enteroviral vesicular stomatitis with exanthem"
            }
          ],
          "text": "Enteroviral vesicular stomatitis with exanthem"
        },
        "subject": {
          "reference": "Patient/TW00079"
        },
        "onsetDateTime": "2025-07-05"
      },
      "request": {
        "method": "PUT",
        "url": "Condition/TW00079-condition-0"
      }
    },
    {
      "resource": {
        "resourceType": "Condition",
        "id": "TW00080-condition-0",
        "clinicalStatus": {
          "coding": [
            {
              "system": "http://terminology.hl7.org/CodeSystem/condition-clinical",
              "code": "resolved"
            }
          ]
        },
        "verificationStatus": {
          "coding": [
            {
              "system": "http://terminology.hl7.org/CodeSystem/condition-ver-status",
              "code": "confirmed"
            }
          ]
        },
        "severity": {
          "coding": [
            {
              "system": "http://snomed.info/sct",
              "code": "255604002",
              "display": "Mild"
            }
          ]
        },
        "code": {
          "coding": [
            {
              "system": "http://hl7.org/fhir/sid/icd-10",
              "code": "A00.0",
              "display": "Cholera due to Vibrio cholerae"
            }
          ],
          "text": "Cholera due to Vibrio cholerae"
        },
        "subject": {
          "reference": "Patient/TW00080"
        },
        "onsetDateTime": "2025-09-22"
      },
      "request": {
        "method": "PUT",
        "url": "Condition/TW00080-condition-0"
      }
    },
    {
      "resource": {
        "resourceType": "Condition",
        "id": "TW00081-condition-0",
        "clinicalStatus": {
          "coding": [
            {
              "system": "http://terminology.hl7.org/CodeSystem/condition-clinical",
              "code": "resolved"
            }
          ]
        },
        "verificationStatus": {
          "coding": [
            {
              "system": "http://terminology.hl7.org/CodeSystem/condition-ver-status",
              "code": "confirmed"
            }
          ]
        },
        "severity": {
          "coding": [
            {
              "system": "http://snomed.info/sct",
              "code": "255604002",
              "display": "Mild"
            }
          ]
        },
        "code": {
          "coding": [
            {
              "system": "http://hl7.org/fhir/sid/icd-10",
              "code": "A08.0",
              "display": "Rotaviral enteritis"
            }
          ],
          "text": "Rotaviral enteritis"
        },
        "subject": {
          "reference": "Patient/TW00081"
        },
        "onsetDateTime": "2025-11-05"
      },
      "request": {
        "method": "PUT",
        "url": "Condition/TW00081-condition-0"
      }
    },
    {
      "resource": {
        "resourceType": "Condition",
        "id": "TW00082-condition-0",
        "clinicalStatus": {
          "coding": [
            {
              "system": "http://terminology.hl7.org/CodeSystem/condition-clinical",
              "code": "resolved"
            }
          ]
        },
        "verificationStatus": {
          "coding": [
            {
              "system": "http://terminology.hl7.org/CodeSystem/condition-ver-status",
              "code": "confirmed"
            }
          ]
        },
        "severity": {
          "coding": [
            {
              "system": "http://snomed.info/sct",
              "code": "255604002",
              "display": "Mild"
            }
          ]
        },
        "code": {
          "coding": [
            {
              "system": "http://hl7.org/fhir/sid/icd-10",
              "code": "A09",
              "display": "Infectious gastroenteritis and colitis"
            }
          ],
          "text": "Infectious gastroenteritis and colitis"
        },
        "subject": {
          "reference": "Patient/TW00082"
        },
        "onsetDateTime": "2025-07-23"
      },
      "request": {
        "method": "PUT",
        "url": "Condition/TW00082-condition-0"
      }
    },
    {
      "resource": {
        "resourceType": "Condition",
        "id": "TW00083-condition-0",
        "clinicalStatus": {
          "coding": [
            {
              "system": "http://terminology.hl7.org/CodeSystem/condition-clinical",
              "code": "resolved"
            }
          ]
        },
        "verificationStatus": {
          "coding": [
            {
              "system": "http://terminology.hl7.org/CodeSystem/condition-ver-status",
              "code": "confirmed"
            }
          ]
        },
        "severity": {
          "coding": [
            {
              "system": "http://snomed.info/sct",
              "code": "255604002",
              "display": "Mild"
            }
          ]
        },
        "code": {
          "coding": [
            {
              "system": "http://hl7.org/fhir/sid/icd-10",
              "code": "A02.0",
              "display": "Salmonella enteritis"
            }
          ],
          "text": "Salmonella enteritis"
        },
        "subject": {
          "reference": "Patient/TW00083"
        },
        "onsetDateTime": "2025-09-12"
      },
      "request": {
        "method": "PUT",
        "url": "Condition/TW00083-condition-0"
      }
    },
    {
      "resource": {
        "resourceType": "Condition",
        "id": "TW00084-condition-0",
        "clinicalStatus": {
          "coding": [
            {
              "system": "http://terminology.hl7.org/CodeSystem/condition-clinical",
              "code": "resolved"
            }
          ]
        },
        "verificationStatus": {
          "coding": [
            {
              "system": "http://terminology.hl7.org/CodeSystem/condition-ver-status",
              "code": "confirmed"
            }
          ]
        },
        "severity": {
          "coding": [
            {
              "system": "http://snomed.info/sct",
              "code": "255604002",
              "display": "Mild"
            }
          ]
        },
        "code": {
          "coding": [
            {
              "system": "http://hl7.org/fhir/sid/icd-10",
              "code": "A08.0",
              "display": "Rotaviral enteritis"
            }
          ],
          "text": "Rotaviral enteritis"
        },
        "subject": {
          "reference": "Patient/TW00084"
        },
        "onsetDateTime": "2025-06-24"
      },
      "request": {
        "method": "PUT",
        "url": "Condition/TW00084-condition-0"
      }
    },
    {
      "resource": {
        "resourceType": "Condition",
        "id": "TW00085-condition-0",
        "clinicalStatus": {
          "coding": [
            {
              "system": "http://terminology.hl7.org/CodeSystem/condition-clinical",
              "code": "resolved"
            }
          ]
        },
        "verificationStatus": {
          "coding": [
            {
              "system": "http://terminology.hl7.org/CodeSystem/condition-ver-status",
              "code": "confirmed"
            }
          ]
        },
        "severity": {
          "coding": [
            {
              "system": "http://snomed.info/sct",
              "code": "6736007",
              "display": "Moderate"
            }
          ]
        },
        "code": {
          "coding": [
            {
              "system": "http://hl7.org/fhir/sid/icd-10",
              "code": "A00.0",
              "display": "Cholera due to Vibrio cholerae"
            }
          ],
          "text": "Cholera due to Vibrio cholerae"
        },
        "subject": {
          "reference": "Patient/TW00085"
        },
        "onsetDateTime": "2025-06-22"
      },
      "request": {
        "method": "PUT",
        "url": "Condition/TW00085-condition-0"
      }
    },
    {
      "resource": {
        "resourceType": "Condition",
        "id": "TW00086-condition-0",
        "clinicalStatus": {
          "coding": [
            {
              "system": "http://terminology.hl7.org/CodeSystem/condition-clinical",
              "code": "resolved"
            }
          ]
        },
        "verificationStatus": {
          "coding": [
            {
              "system": "http://terminology.hl7.org/CodeSystem/condition-ver-status",
              "code": "confirmed"
            }
          ]
        },
        "severity": {
          "coding": [
            {
              "system": "http://snomed.info/sct",
              "code": "255604002",
              "display": "Mild"
            }
          ]
        },
        "code": {
          "coding": [
            {
              "system": "http://hl7.org/fhir/sid/icd-10",
              "code": "A00.0",
              "display": "Cholera due to Vibrio cholerae"
            }
          ],
          "text": "Cholera due to Vibrio cholerae"
        },
        "subject": {
          "reference": "Patient/TW00086"
        },
        "onsetDateTime": "2025-10-04"
      },
      "request": {
        "method": "PUT",
        "url": "Condition/TW00086-condition-0"
      }
    },
    {
      "resource": {
        "resourceType": "Condition",
        "id": "TW00087-condition-0",
        "clinicalStatus": {
          "coding": [
            {
              "system": "http://terminology.hl7.org/CodeSystem/condition-clinical",
              "code": "resolved"
            }
          ]
        },
        "verificationStatus": {
          "coding": [
            {
              "system": "http://terminology.hl7.org/CodeSystem/condition-ver-status",
              "code": "confirmed"
            }
          ]
        },
        "severity": {
          "coding": [
            {
              "system": "http://snomed.info/sct",
              "code": "255604002",
              "display": "Mild"
            }
          ]
        },
        "code": {
          "coding": [
            {
              "system": "http://hl7.org/fhir/sid/icd-10",
              "code": "A09",
              "display": "Infectious gastroenteritis and colitis"
            }
          ],
          "text": "Infectious gastroenteritis and colitis"
        },
        "subject": {
          "reference": "Patient/TW00087"
        },
        "onsetDateTime": "2025-08-24"
      },
      "request": {
        "method": "PUT",
        "url": "Condition/TW00087-condition-0"
      }
    },
    {
      "resource": {
        "resourceType": "Condition",
        "id": "TW00088-condition-0",
        "clinicalStatus": {
          "coding": [
            {
              "system": "http://terminology.hl7.org/CodeSystem/condition-clinical",
              "code": "resolved"
            }
          ]
        },
        "verificationStatus": {
          "coding": [
            {
              "system": "http://terminology.hl7.org/CodeSystem/condition-ver-status",
              "code": "confirmed"
            }
          ]
        },
        "severity": {
          "coding": [
            {
              "system": "http://snomed.info/sct",
              "code": "6736007",
              "display": "Moderate"
            }
          ]
        },
        "code": {
          "coding": [
            {
              "system": "http://hl7.org/fhir/sid/icd-10",
              "code": "A02.0",
              "display": "Salmonella enteritis"
            }
          ],
          "text": "Salmonella enteritis"
        },
        "subject": {
          "reference": "Patient/TW00088"
        },
        "onsetDateTime": "2025-08-18"
      },
      "request": {
        "method": "PUT",
        "url": "Condition/TW00088-condition-0"
      }
    },
    {
      "resource": {
        "resourceType": "Condition",
        "id": "TW00089-condition-0",
        "clinicalStatus": {
          "coding": [
            {
              "system": "http://terminology.hl7.org/CodeSystem/condition-clinical",
              "code": "resolved"
            }
          ]
        },
        "verificationStatus": {
          "coding": [
            {
              "system": "http://terminology.hl7.org/CodeSystem/condition-ver-status",
              "code": "confirmed"
            }
          ]
        },
        "severity": {
          "coding": [
            {
              "system": "http://snomed.info/sct",
              "code": "255604002",
              "display": "Mild"
            }
          ]
        },
        "code": {
          "coding": [
            {
              "system": "http://hl7.org/fhir/sid/icd-10",
              "code": "A09",
              "display": "Infectious gastroenteritis and colitis"
            }
          ],
          "text": "Infectious gastroenteritis and colitis"
        },
        "subject": {
          "reference": "Patient/TW00089"
        },
        "onsetDateTime": "2025-09-02"
      },
      "request": {
        "method": "PUT",
        "url": "Condition/TW00089-condition-0"
      }
    },
    {
      "resource": {
        "resourceType": "Condition",
        "id": "TW00090-condition-0",
        "clinicalStatus": {
          "coding": [
            {
              "system": "http://terminology.hl7.org/CodeSystem/condition-clinical",
              "code": "resolved"
            }
          ]
        },
        "verificationStatus": {
          "coding": [
            {
              "system": "http://terminology.hl7.org/CodeSystem/condition-ver-status",
              "code": "confirmed"
            }
          ]
        },
        "severity": {
          "coding": [
            {
              "system": "http://snomed.info/sct",
              "code": "24484000",
              "display": "Severe"
            }
          ]
        },
        "code": {
          "coding": [
            {
              "system": "http://hl7.org/fhir/sid/icd-10",
              "code": "A09",
              "display": "Infectious gastroenteritis and colitis"
            }
          ],
          "text": "Infectious gastroenteritis and colitis"
        },
        "subject": {
          "reference": "Patient/TW00090"
        },
        "onsetDateTime": "2025-09-12"
      },
      "request": {
        "method": "PUT",
        "url": "Condition/TW00090-condition-0"
      }
    },
    {
      "resource": {
        "resourceType": "Condition",
        "id": "TW00091-condition-0",
        "clinicalStatus": {
          "coding": [
            {
              "system": "http://terminology.hl7.org/CodeSystem/condition-clinical",
              "code": "resolved"
            }
          ]
        },
        "verificationStatus": {
          "coding": [
            {
              "system": "http://terminology.hl7.org/CodeSystem/condition-ver-status",
              "code": "confirmed"
            }
          ]
        },
        "severity": {
          "coding": [
            {
              "system": "http://snomed.info/sct",
              "code": "255604002",
              "display": "Mild"
            }
          ]
        },
        "code": {
          "coding": [
            {
              "system": "http://hl7.org/fhir/sid/icd-10",
              "code": "A02.0",
              "display": "Salmonella enteritis"
            }
          ],
          "text": "Salmonella enteritis"
        },
        "subject": {
          "reference": "Patient/TW00091"
        },
        "onsetDateTime": "2025-10-12"
      },
      "request": {
        "method": "PUT",
        "url": "Condition/TW00091-condition-0"
      }
    },
    {
      "resource": {
        "resourceType": "Condition",
        "id": "TW00092-condition-0",
        "clinicalStatus": {
          "coding": [
            {
              "system": "http://terminology.hl7.org/CodeSystem/condition-clinical",
              "code": "resolved"
            }
          ]
        },
        "verificationStatus": {
          "coding": [
            {
              "system": "http://terminology.hl7.org/CodeSystem/condition-ver-status",
              "code": "confirmed"
            }
          ]
        },
        "severity": {
          "coding": [
            {
              "system": "http://snomed.info/sct",
              "code": "6736007",
              "display": "Moderate"
            }
          ]
        },
        "code": {
          "coding": [
            {
              "system": "http://hl7.org/fhir/sid/icd-10",
              "code": "A04.0",
              "display": "Enteropathogenic Escherichia coli infection"
            }
          ],
          "text": "Enteropathogenic Escherichia coli infection"
        },
        "subject": {
          "reference": "Patient/TW00092"
        },
        "onsetDateTime": "2025-07-03"
      },
      "request": {
        "method": "PUT",
        "url": "Condition/TW00092-condition-0"
      }
    },
    {
      "resource": {
        "resourceType": "Condition",
        "id": "TW00093-condition-0",
        "clinicalStatus": {
          "coding": [
            {
              "system": "http://terminology.hl7.org/CodeSystem/condition-clinical",
              "code": "resolved"
            }
          ]
        },
        "verificationStatus": {
          "coding": [
            {
              "system": "http://terminology.hl7.org/CodeSystem/condition-ver-status",
              "code": "confirmed"
            }
          ]
        },
        "severity": {
          "coding": [
            {
              "system": "http://snomed.info/sct",
              "code": "6736007",
              "display": "Moderate"
            }
          ]
        },
        "code": {
          "coding": [
            {
              "system": "http://hl7.org/fhir/sid/icd-10",
              "code": "A00.9",
              "display": "Cholera, unspecified"
            }
          ],
          "text": "Cholera, unspecified"
        },
        "subject": {
          "reference": "Patient/TW00093"
        },
        "onsetDateTime": "2025-06-23"
      },
      "request": {
        "method": "PUT",
        "url": "Condition/TW00093-condition-0"
      }
    },
    {
      "resource": {
        "resourceType": "Condition",
        "id": "TW00094-condition-0",
        "clinicalStatus": {
          "coding": [
            {
              "system": "http://terminology.hl7.org/CodeSystem/condition-clinical",
              "code": "resolved"
            }
          ]
        },
        "verificationStatus": {
          "coding": [
            {
              "system": "http://terminology.hl7.org/CodeSystem/condition-ver-status",
              "code": "confirmed"
            }
          ]
        },
        "severity": {
          "coding": [
            {
              "system": "http://snomed.info/sct",
              "code": "255604002",
              "display": "Mild"
            }
          ]
        },
        "code": {
          "coding": [
            {
              "system": "http://hl7.org/fhir/sid/icd-10",
              "code": "A09",
              "display": "Infectious gastroenteritis and colitis"
            }
          ],
          "text": "Infectious gastroenteritis and colitis"
        },
        "subject": {
          "reference": "Patient/TW00094"
        },
        "onsetDateTime": "2025-10-12"
      },
      "request": {
        "method": "PUT",
        "url": "Condition/TW00094-condition-0"
      }
    },
    {
      "resource": {
        "resourceType": "Condition",
        "id": "TW00095-condition-0",
        "clinicalStatus": {
          "coding": [
            {
              "system": "http://terminology.hl7.org/CodeSystem/condition-clinical",
              "code": "resolved"
            }
          ]
        },
        "verificationStatus": {
          "coding": [
            {
              "system": "http://terminology.hl7.org/CodeSystem/condition-ver-status",
              "code": "confirmed"
            }
          ]
        },
        "severity": {
          "coding": [
            {
              "system": "http://snomed.info/sct",
              "code": "24484000",
              "display": "Severe"
            }
          ]
        },
        "code": {
          "coding": [
            {
              "system": "http://hl7.org/fhir/sid/icd-10",
              "code": "A00.9",
              "display": "Cholera, unspecified"
            }
          ],
          "text": "Cholera, unspecified"
        },
        "subject": {
          "reference": "Patient/TW00095"
        },
        "onsetDateTime": "2025-06-14"
      },
      "request": {
        "method": "PUT",
        "url": "Condition/TW00095-condition-0"
      }
    },
    {
      "resource": {
        "resourceType": "Condition",
        "id": "TW00096-condition-0",
        "clinicalStatus": {
          "coding": [
            {
              "system": "http://terminology.hl7.org/CodeSystem/condition-clinical",
              "code": "resolved"
            }
          ]
        },
        "verificationStatus": {
          "coding": [
            {
              "system": "http://terminology.hl7.org/CodeSystem/condition-ver-status",
              "code": "confirmed"
            }
          ]
        },
        "severity": {
          "coding": [
            {
              "system": "http://snomed.info/sct",
              "code": "6736007",
              "display": "Moderate"
            }
          ]
        },
        "code": {
          "coding": [
            {
              "system": "http://hl7.org/fhir/sid/icd-10",
              "code": "A04.0",
              "display": "Enteropathogenic Escherichia coli infection"
            }
          ],
          "text": "Enteropathogenic Escherichia coli infection"
        },
        "subject": {
          "reference": "Patient/TW00096"
        },
        "onsetDateTime": "2025-07-21"
      },
      "request": {
        "method": "PUT",
        "url": "Condition/TW00096-condition-0"
      }
    },
    {
      "resource": {
        "resourceType": "Condition",
        "id": "TW00097-condition-0",
        "clinicalStatus": {
          "coding": [
            {
              "system": "http://terminology.hl7.org/CodeSystem/condition-clinical",
              "code": "resolved"
            }
          ]
        },
        "verificationStatus": {
          "coding": [
            {
              "system": "http://terminology.hl7.org/CodeSystem/condition-ver-status",
              "code": "confirmed"
            }
          ]
        },
        "severity": {
          "coding": [
            {
              "system": "http://snomed.info/sct",
              "code": "255604002",
              "display": "Mild"
            }
          ]
        },
        "code": {
          "coding": [
            {
              "system": "http://hl7.org/fhir/sid/icd-10",
              "code": "A04.0",
              "display": "Enteropathogenic Escherichia coli infection"
            }
          ],
          "text": "Enteropathogenic Escherichia coli infection"
        },
        "subject": {
          "reference": "Patient/TW00097"
        },
        "onsetDateTime": "2025-09-28"
      },
      "request": {
        "method": "PUT",
        "url": "Condition/TW00097-condition-0"
      }
    },
    {
      "resource": {
        "resourceType": "Condition",
        "id": "TW00098-condition-0",
        "clinicalStatus": {
          "coding": [
            {
              "system": "http://terminology.hl7.org/CodeSystem/condition-clinical",
              "code": "resolved"
            }
          ]
        },
        "verificationStatus": {
          "coding": [
            {
              "system": "http://terminology.hl7.org/CodeSystem/condition-ver-status",
              "code": "confirmed"
            }
          ]
        },
        "severity": {
          "coding": [
            {
              "system": "http://snomed.info/sct",
              "code": "255604002",
              "display": "Mild"
            }
          ]
        },
        "code": {
          "coding": [
            {
              "system": "http://hl7.org/fhir/sid/icd-10",
              "code": "A00.0",
              "display": "Cholera due to Vibrio cholerae"
            }
          ],
          "text": "Cholera due to Vibrio cholerae"
        },
        "subject": {
          "reference": "Patient/TW00098"
        },
        "onsetDateTime": "2025-09-16"
      },
      "request": {
        "method": "PUT",
        "url": "Condition/TW00098-condition-0"
      }
    },
    {
      "resource": {
        "resourceType": "Condition",
        "id": "TW00099-condition-0",
        "clinicalStatus": {
          "coding": [
            {
              "system": "http://terminology.hl7.org/CodeSystem/condition-clinical",
              "code": "resolved"
            }
          ]
        },
        "verificationStatus": {
          "coding": [
            {
              "system": "http://terminology.hl7.org/CodeSystem/condition-ver-status",
              "code": "confirmed"
            }
          ]
        },
        "severity": {
          "coding": [
            {
              "system": "http://snomed.info/sct",
              "code": "255604002",
              "display": "Mild"
            }
          ]
        },
        "code": {
          "coding": [
            {
              "system": "http://hl7.org/fhir/sid/icd-10",
              "code": "A04.0",
              "display": "Enteropathogenic Escherichia coli infection"
            }
          ],
          "text": "Enteropathogenic Escherichia coli infection"
        },
        "subject": {
          "reference": "Patient/TW00099"
        },
        "onsetDateTime": "2025-07-06"
      },
      "request": {
        "method": "PUT",
        "url": "Condition/TW00099-condition-0"
      }
    }
  ]
}