{
  "resourceType": "Bundle",
  "type": "transaction",
  "entry": [
    {
      "resource": {
        "resourceType": "Patient",
        "id": "TW00168",
        "identifier": [
          {
            "system": "urn:oid:2.16.886.101.20003.20001",
            "value": "TW00168"
          }
        ],
        "name": [
          {
            "text": "謝家豪",
            "family": "謝",
            "given": [
              "家豪"
            ]
          }
        ],
        "gender": "male",
        "birthDate": "1983-06-10",
        "address": [
          {
            "city": "南投縣",
            "country": "TW"
          }
        ]
      },
      "request": {
        "method": "PUT",
        "url": "Patient/TW00168"
      }
    },
    {
      "resource": {
        "resourceType": "Immunization",
        "id": "TW00168-flu-1",
        "status": "completed",
        "vaccineCode": {
          "coding": [
            {
              "system": "http://hl7.org/fhir/sid/cvx",
              "code": "141",
              "display": "Influenza, seasonal, injectable"
            }
          ],
          "text": "Influenza vaccine"
        },
        "patient": {
          "reference": "Patient/TW00168"
        },
        "occurrenceDateTime": "2024-11-10",
        "primarySource": true,
        "lotNumber": "LOT558380",
        "expirationDate": "2026-12-31",
        "site": {
          "coding": [
            {
              "system": "http://terminology.hl7.org/CodeSystem/v3-ActSite",
              "code": "LA",
              "display": "left arm"
            }
          ]
        },
        "route": {
          "coding": [
            {
              "system": "http://terminology.hl7.org/CodeSystem/v3-RouteOfAdministration",
              "code": "IM",
              "display": "Injection, intramuscular"
            }
          ]
        },
        "doseQuantity": {
          "value": 0.5,
          "unit": "mL",
          "system": "http://unitsofmeasure.org",
          "code": "mL"
        },
        "protocolApplied": [
          {
            "doseNumberPositiveInt": 1,
            "seriesDosesPositiveInt": 1
          }
        ]
      },
      "request": {
        "method": "PUT",
        "url": "Immunization/TW00168-flu-1"
      }
    },
    {
      "resource": {
        "resourceType": "Patient",
        "id": "TW00147",
        "identifier": [
          {
            "system": "urn:oid:2.16.886.101.20003.20001",
            "value": "TW00147"
          }
        ],
        "name": [
          {
            "text": "謝文彬",
            "family": "謝",
            "given": [
              "文彬"
            ]
          }
        ],
        "gender": "male",
        "birthDate": "1956-04-09",
        "address": [
          {
            "city": "屏東縣",
            "country": "TW"
          }
        ]
      },
      "request": {
        "method": "PUT",
        "url": "Patient/TW00147"
      }
    },
    {
      "resource": {
        "resourceType": "Immunization",
        "id": "TW00147-flu-1",
        "status": "completed",
        "vaccineCode": {
          "coding": [
            {
              "system": "http://hl7.org/fhir/sid/cvx",
              "code": "185",
              "display": "Influenza, seasonal, injectable, quadrivalent"
            }
          ],
          "text": "Influenza vaccine"
        },
        "patient": {
          "reference": "Patient/TW00147"
        },
        "occurrenceDateTime": "2025-01-02",
        "primarySource": true,
        "lotNumber": "LOT157716",
        "expirationDate": "2026-12-31",
        "site": {
          "coding": [
            {
              "system": "http://terminology.hl7.org/CodeSystem/v3-ActSite",
              "code": "LA",
              "display": "left arm"
            }
          ]
        },
        "route": {
          "coding": [
            {
              "system": "http://terminology.hl7.org/CodeSystem/v3-RouteOfAdministration",
              "code": "IM",
              "display": "Injection, intramuscular"
            }
          ]
        },
        "doseQuantity": {
          "value": 0.5,
          "unit": "mL",
          "system": "http://unitsofmeasure.org",
          "code": "mL"
        },
        "protocolApplied": [
          {
            "doseNumberPositiveInt": 1,
            "seriesDosesPositiveInt": 1
          }
        ]
      },
      "request": {
        "method": "PUT",
        "url": "Immunization/TW00147-flu-1"
      }
    },
    {
      "resource": {
        "resourceType": "Patient",
        "id": "TW00194",
        "identifier": [
          {
            "system": "urn:oid:2.16.886.101.20003.20001",
            "value": "TW00194"
          }
        ],
        "name": [
          {
            "text": "蔡宗翰",
            "family": "蔡",
            "given": [
              "宗翰"
            ]
          }
        ],
        "gender": "male",
        "birthDate": "1966-12-07",
        "address": [
          {
            "city": "台北市",
            "country": "TW"
          }
        ]
      },
      "request": {
        "method": "PUT",
        "url": "Patient/TW00194"
      }
    },
    {
      "resource": {
        "resourceType": "Immunization",
        "id": "TW00194-flu-1",
        "status": "completed",
        "vaccineCode": {
          "coding": [
            {
              "system": "http://hl7.org/fhir/sid/cvx",
              "code": "185",
              "display": "Influenza, seasonal, injectable, quadrivalent"
            }
          ],
          "text": "Influenza vaccine"
        },
        "patient": {
          "reference": "Patient/TW00194"
        },
        "occurrenceDateTime": "2024-10-26",
        "primarySource": true,
        "lotNumber": "LOT953680",
        "expirationDate": "2026-12-31",
        "site": {
          "coding": [
            {
              "system": "http://terminology.hl7.org/CodeSystem/v3-ActSite",
              "code": "LA",
              "display": "left arm"
            }
          ]
        },
        "route": {
          "coding": [
            {
              "system": "http://terminology.hl7.org/CodeSystem/v3-RouteOfAdministration",
              "code": "IM",
              "display": "Injection, intramuscular"
            }
          ]
        },
        "doseQuantity": {
          "value": 0.5,
          "unit": "mL",
          "system": "http://unitsofmeasure.org",
          "code": "mL"
        },
        "protocolApplied": [
          {
            "doseNumberPositiveInt": 1,
            "seriesDosesPositiveInt": 1
          }
        ]
      },
      "request": {
        "method": "PUT",
        "url": "Immunization/TW00194-flu-1"
      }
    },
    {
      "resource": {
        "resourceType": "Patient",
        "id": "TW00141",
        "identifier": [
          {
            "system": "urn:oid:2.16.886.101.20003.20001",
            "value": "TW00141"
          }
        ],
        "name": [
          {
            "text": "王淑芬",
            "family": "王",
            "given": [
              "淑芬"
            ]
          }
        ],
        "gender": "female",
        "birthDate": "1989-03-16",
        "address": [
          {
            "city": "台南市",
            "country": "TW"
          }
        ]
      },
      "request": {
        "method": "PUT",
        "url": "Patient/TW00141"
      }
    },
    {
      "resource": {
        "resourceType": "Immunization",
        "id": "TW00141-flu-1",
        "status": "completed",
        "vaccineCode": {
          "coding": [
            {
              "system": "http://hl7.org/fhir/sid/cvx",
              "code": "141",
              "display": "Influenza, seasonal, injectable"
            }
          ],
          "text": "Influenza vaccine"
        },
        "patient": {
          "reference": "Patient/TW00141"
        },
        "occurrenceDateTime": "2025-01-01",
        "primarySource": true,
        "lotNumber": "LOT937087",
        "expirationDate": "2026-12-31",
        "site": {
          "coding": [
            {
              "system": "http://terminology.hl7.org/CodeSystem/v3-ActSite",
              "code": "LA",
              "display": "left arm"
            }
          ]
        },
        "route": {
          "coding": [
            {
              "system": "http://terminology.hl7.org/CodeSystem/v3-RouteOfAdministration",
              "code": "IM",
              "display": "Injection, intramuscular"
            }
          ]
        },
        "doseQuantity": {
          "value": 0.5,
          "unit": "mL",
          "system": "http://unitsofmeasure.org",
          "code": "mL"
        },
        "protocolApplied": [
          {
            "doseNumberPositiveInt": 1,
            "seriesDosesPositiveInt": 1
          }
        ]
      },
      "request": {
        "method": "PUT",
        "url": "Immunization/TW00141-flu-1"
      }
    },
    {
      "resource": {
        "resourceType": "Patient",
        "id": "TW00174",
        "identifier": [
          {
            "system": "urn:oid:2.16.886.101.20003.20001",
            "value": "TW00174"
          }
        ],
        "name": [
          {
            "text": "許欣怡",
            "family": "許",
            "given": [
              "欣怡"
            ]
          }
        ],
        "gender": "female",
        "birthDate": "1962-05-06",
        "address": [
          {
            "city": "連江縣",
            "country": "TW"
          }
        ]
      },
      "request": {
        "method": "PUT",
        "url": "Patient/TW00174"
      }
    },
    {
      "resource": {
        "resourceType": "Immunization",
        "id": "TW00174-flu-1",
        "status": "completed",
        "vaccineCode": {
          "coding": [
            {
              "system": "http://hl7.org/fhir/sid/cvx",
              "code": "141",
              "display": "Influenza, seasonal, injectable"
            }
          ],
          "text": "Influenza vaccine"
        },
        "patient": {
          "reference": "Patient/TW00174"
        },
        "occurrenceDateTime": "2025-01-15",
        "primarySource": true,
        "lotNumber": "LOT555920",
        "expirationDate": "2026-12-31",
        "site": {
          "coding": [
            {
              "system": "http://terminology.hl7.org/CodeSystem/v3-ActSite",
              "code": "LA",
              "display": "left arm"
            }
          ]
        },
        "route": {
          "coding": [
            {
              "system": "http://terminology.hl7.org/CodeSystem/v3-RouteOfAdministration",
              "code": "IM",
              "display": "Injection, intramuscular"
            }
          ]
        },
        "doseQuantity": {
          "value": 0.5,
          "unit": "mL",
          "system": "http://unitsofmeasure.org",
          "code": "mL"
        },
        "protocolApplied": [
          {
            "doseNumberPositiveInt": 1,
            "seriesDosesPositiveInt": 1
          }
        ]
      },
      "request": {
        "method": "PUT",
        "url": "Immunization/TW00174-flu-1"
      }
    },
    {
      "resource": {
        "resourceType": "Patient",
        "id": "TW00158",
        "identifier": [
          {
            "system": "urn:oid:2.16.886.101.20003.20001",
            "value": "TW00158"
          }
        ],
        "name": [
          {
            "text": "黃美惠",
            "family": "黃",
            "given": [
              "美惠"
            ]
          }
        ],
        "gender": "female",
        "birthDate": "1958-12-07",
        "address": [
          {
            "city": "宜蘭縣",
            "country": "TW"
          }
        ]
      },
      "request": {
        "method": "PUT",
        "url": "Patient/TW00158"
      }
    },
    {
      "resource": {
        "resourceType": "Immunization",
        "id": "TW00158-flu-1",
        "status": "completed",
        "vaccineCode": {
          "coding": [
            {
              "system": "http://hl7.org/fhir/sid/cvx",
              "code": "141",
              "display": "Influenza, seasonal, injectable"
            }
          ],
          "text": "Influenza vaccine"
        },
        "patient": {
          "reference": "Patient/TW00158"
        },
        "occurrenceDateTime": "2024-12-15",
        "primarySource": true,
        "lotNumber": "LOT499284",
        "expirationDate": "2026-12-31",
        "site": {
          "coding": [
            {
              "system": "http://terminology.hl7.org/CodeSystem/v3-ActSite",
              "code": "LA",
              "display": "left arm"
            }
          ]
        },
        "route": {
          "coding": [
            {
              "system": "http://terminology.hl7.org/CodeSystem/v3-RouteOfAdministration",
              "code": "IM",
              "display": "Injection, intramuscular"
            }
          ]
        },
        "doseQuantity": {
          "value": 0.5,
          "unit": "mL",
          "system": "http://unitsofmeasure.org",
          "code": "mL"
        },
        "protocolApplied": [
          {
            "doseNumberPositiveInt": 1,
            "seriesDosesPositiveInt": 1
          }
        ]
      },
      "request": {
        "method": "PUT",
        "url": "Immunization/TW00158-flu-1"
      }
    },
    {
      "resource": {
        "resourceType": "Patient",
        "id": "TW00196",
        "identifier": [
          {
            "system": "urn:oid:2.16.886.101.20003.20001",
            "value": "TW00196"
          }
        ],
        "name": [
          {
            "text": "陳佳蓉",
            "family": "陳",
            "given": [
              "佳蓉"
            ]
          }
        ],
        "gender": "female",
        "birthDate": "1958-12-08",
        "address": [
          {
            "city": "嘉義縣",
            "country": "TW"
          }
        ]
      },
      "request": {
        "method": "PUT",
        "url": "Patient/TW00196"
      }
    },
    {
      "resource": {
        "resourceType": "Immunization",
        "id": "TW00196-flu-1",
        "status": "completed",
        "vaccineCode": {
          "coding": [
            {
              "system": "http://hl7.org/fhir/sid/cvx",
              "code": "185",
              "display": "Influenza, seasonal, injectable, quadrivalent"
            }
          ],
          "text": "Influenza vaccine"
        },
        "patient": {
          "reference": "Patient/TW00196"
        },
        "occurrenceDateTime": "2024-10-09",
        "primarySource": true,
        "lotNumber": "LOT255368",
        "expirationDate": "2026-12-31",
        "site": {
          "coding": [
            {
              "system": "http://terminology.hl7.org/CodeSystem/v3-ActSite",
              "code": "LA",
              "display": "left arm"
            }
          ]
        },
        "route": {
          "coding": [
            {
              "system": "http://terminology.hl7.org/CodeSystem/v3-RouteOfAdministration",
              "code": "IM",
              "display": "Injection, intramuscular"
            }
          ]
        },
        "doseQuantity": {
          "value": 0.5,
          "unit": "mL",
          "system": "http://unitsofmeasure.org",
          "code": "mL"
        },
        "protocolApplied": [
          {
            "doseNumberPositiveInt": 1,
            "seriesDosesPositiveInt": 1
          }
        ]
      },
      "request": {
        "method": "PUT",
        "url": "Immunization/TW00196-flu-1"
      }
    },
    {
      "resource": {
        "resourceType": "Patient",
        "id": "TW00113",
        "identifier": [
          {
            "system": "urn:oid:2.16.886.101.20003.20001",
            "value": "TW00113"
          }
        ],
        "name": [
          {
            "text": "王宇軒",
            "family": "王",
            "given": [
              "宇軒"
            ]
          }
        ],
        "gender": "male",
        "birthDate": "2003-03-11",
        "address": [
          {
            "city": "嘉義市",
            "country": "TW"
          }
        ]
      },
      "request": {
        "method": "PUT",
        "url": "Patient/TW00113"
      }
    },
    {
      "resource": {
        "resourceType": "Immunization",
        "id": "TW00113-flu-1",
        "status": "completed",
        "vaccineCode": {
          "coding": [
            {
              "system": "http://hl7.org/fhir/sid/cvx",
              "code": "141",
              "display": "Influenza, seasonal, injectable"
            }
          ],
          "text": "Influenza vaccine"
        },
        "patient": {
          "reference": "Patient/TW00113"
        },
        "occurrenceDateTime": "2025-01-22",
        "primarySource": true,
        "lotNumber": "LOT381319",
        "expirationDate": "2026-12-31",
        "site": {
          "coding": [
            {
              "system": "http://terminology.hl7.org/CodeSystem/v3-ActSite",
              "code": "LA",
              "display": "left arm"
            }
          ]
        },
        "route": {
          "coding": [
            {
              "system": "http://terminology.hl7.org/CodeSystem/v3-RouteOfAdministration",
              "code": "IM",
              "display": "Injection, intramuscular"
            }
          ]
        },
        "doseQuantity": {
          "value": 0.5,
          "unit": "mL",
          "system": "http://unitsofmeasure.org",
          "code": "mL"
        },
        "protocolApplied": [
          {
            "doseNumberPositiveInt": 1,
            "seriesDosesPositiveInt": 1
          }
        ]
      },
      "request": {
        "method": "PUT",
        "url": "Immunization/TW00113-flu-1"
      }
    },
    {
      "resource": {
        "resourceType": "Patient",
        "id": "TW00109",
        "identifier": [
          {
            "system": "urn:oid:2.16.886.101.20003.20001",
            "value": "TW00109"
          }
        ],
        "name": [
          {
            "text": "許淑娟",
            "family": "許",
            "given": [
              "淑娟"
            ]
          }
        ],
        "gender": "female",
        "birthDate": "2000-03-07",
        "address": [
          {
            "city": "花蓮縣",
            "country": "TW"
          }
        ]
      },
      "request": {
        "method": "PUT",
        "url": "Patient/TW00109"
      }
    },
    {
      "resource": {
        "resourceType": "Immunization",
        "id": "TW00109-flu-1",
        "status": "completed",
        "vaccineCode": {
          "coding": [
            {
              "system": "http://hl7.org/fhir/sid/cvx",
              "code": "141",
              "display": "Influenza, seasonal, injectable"
            }
          ],
          "text": "Influenza vaccine"
        },
        "patient": {
          "reference": "Patient/TW00109"
        },
        "occurrenceDateTime": "2024-10-09",
        "primarySource": true,
        "lotNumber": "LOT273408",
        "expirationDate": "2026-12-31",
        "site": {
          "coding": [
            {
              "system": "http://terminology.hl7.org/CodeSystem/v3-ActSite",
              "code": "LA",
              "display": "left arm"
            }
          ]
        },
        "route": {
          "coding": [
            {
              "system": "http://terminology.hl7.org/CodeSystem/v3-RouteOfAdministration",
              "code": "IM",
              "display": "Injection, intramuscular"
            }
          ]
        },
        "doseQuantity": {
          "value": 0.5,
          "unit": "mL",
          "system": "http://unitsofmeasure.org",
          "code": "mL"
        },
        "protocolApplied": [
          {
            "doseNumberPositiveInt": 1,
            "seriesDosesPositiveInt": 1
          }
        ]
      },
      "request": {
        "method": "PUT",
        "url": "Immunization/TW00109-flu-1"
      }
    },
    {
      "resource": {
        "resourceType": "Patient",
        "id": "TW00169",
        "identifier": [
          {
            "system": "urn:oid:2.16.886.101.20003.20001",
            "value": "TW00169"
          }
        ],
        "name": [
          {
            "text": "吳文彬",
            "family": "吳",
            "given": [
              "文彬"
            ]
          }
        ],
        "gender": "male",
        "birthDate": "1943-03-16",
        "address": [
          {
            "city": "台東縣",
            "country": "TW"
          }
        ]
      },
      "request": {
        "method": "PUT",
        "url": "Patient/TW00169"
      }
    },
    {
      "resource": {
        "resourceType": "Immunization",
        "id": "TW00169-flu-1",
        "status": "completed",
        "vaccineCode": {
          "coding": [
            {
              "system": "http://hl7.org/fhir/sid/cvx",
              "code": "185",
              "display": "Influenza, seasonal, injectable, quadrivalent"
            }
          ],
          "text": "Influenza vaccine"
        },
        "patient": {
          "reference": "Patient/TW00169"
        },
        "occurrenceDateTime": "2025-01-13",
        "primarySource": true,
        "lotNumber": "LOT234664",
        "expirationDate": "2026-12-31",
        "site": {
          "coding": [
            {
              "system": "http://terminology.hl7.org/CodeSystem/v3-ActSite",
              "code": "LA",
              "display": "left arm"
            }
          ]
        },
        "route": {
          "coding": [
            {
              "system": "http://terminology.hl7.org/CodeSystem/v3-RouteOfAdministration",
              "code": "IM",
              "display": "Injection, intramuscular"
            }
          ]
        },
        "doseQuantity": {
          "value": 0.5,
          "unit": "mL",
          "system": "http://unitsofmeasure.org",
          "code": "mL"
        },
        "protocolApplied": [
          {
            "doseNumberPositiveInt": 1,
            "seriesDosesPositiveInt": 1
          }
        ]
      },
      "request": {
        "method": "PUT",
        "url": "Immunization/TW00169-flu-1"
      }
    },
    {
      "resource": {
        "resourceType": "Patient",
        "id": "TW00108",
        "identifier": [
          {
            "system": "urn:oid:2.16.886.101.20003.20001",
            "value": "TW00108"
          }
        ],
        "name": [
          {
            "text": "黃雅婷",
            "family": "黃",
            "given": [
              "雅婷"
            ]
          }
        ],
        "gender": "female",
        "birthDate": "1946-03-08",
        "address": [
          {
            "city": "屏東縣",
            "country": "TW"
          }
        ]
      },
      "request": {
        "method": "PUT",
        "url": "Patient/TW00108"
      }
    },
    {
      "resource": {
        "resourceType": "Immunization",
        "id": "TW00108-flu-1",
        "status": "completed",
        "vaccineCode": {
          "coding": [
            {
              "system": "http://hl7.org/fhir/sid/cvx",
              "code": "185",
              "display": "Influenza, seasonal, injectable, quadrivalent"
            }
          ],
          "text": "Influenza vaccine"
        },
        "patient": {
          "reference": "Patient/TW00108"
        },
        "occurrenceDateTime": "2024-11-05",
        "primarySource": true,
        "lotNumber": "LOT432460",
        "expirationDate": "2026-12-31",
        "site": {
          "coding": [
            {
              "system": "http://terminology.hl7.org/CodeSystem/v3-ActSite",
              "code": "LA",
              "display": "left arm"
            }
          ]
        },
        "route": {
          "coding": [
            {
              "system": "http://terminology.hl7.org/CodeSystem/v3-RouteOfAdministration",
              "code": "IM",
              "display": "Injection, intramuscular"
            }
          ]
        },
        "doseQuantity": {
          "value": 0.5,
          "unit": "mL",
          "system": "http://unitsofmeasure.org",
          "code": "mL"
        },
        "protocolApplied": [
          {
            "doseNumberPositiveInt": 1,
            "seriesDosesPositiveInt": 1
          }
        ]
      },
      "request": {
        "method": "PUT",
        "url": "Immunization/TW00108-flu-1"
      }
    },
    {
      "resource": {
        "resourceType": "Patient",
        "id": "TW00179",
        "identifier": [
          {
            "system": "urn:oid:2.16.886.101.20003.20001",
            "value": "TW00179"
          }
        ],
        "name": [
          {
            "text": "張柏翰",
            "family": "張",
            "given": [
              "柏翰"
            ]
          }
        ],
        "gender": "male",
        "birthDate": "1955-10-03",
        "address": [
          {
            "city": "苗栗縣",
            "country": "TW"
          }
        ]
      },
      "request": {
        "method": "PUT",
        "url": "Patient/TW00179"
      }
    },
    {
      "resource": {
        "resourceType": "Immunization",
        "id": "TW00179-flu-1",
        "status": "completed",
        "vaccineCode": {
          "coding": [
            {
              "system": "http://hl7.org/fhir/sid/cvx",
              "code": "185",
              "display": "Influenza, seasonal, injectable, quadrivalent"
            }
          ],
          "text": "Influenza vaccine"
        },
        "patient": {
          "reference": "Patient/TW00179"
        },
        "occurrenceDateTime": "2024-12-19",
        "primarySource": true,
        "lotNumber": "LOT243502",
        "expirationDate": "2026-12-31",
        "site": {
          "coding": [
            {
              "system": "http://terminology.hl7.org/CodeSystem/v3-ActSite",
              "code": "LA",
              "display": "left arm"
            }
          ]
        },
        "route": {
          "coding": [
            {
              "system": "http://terminology.hl7.org/CodeSystem/v3-RouteOfAdministration",
              "code": "IM",
              "display": "Injection, intramuscular"
            }
          ]
        },
        "doseQuantity": {
          "value": 0.5,
          "unit": "mL",
          "system": "http://unitsofmeasure.org",
          "code": "mL"
        },
        "protocolApplied": [
          {
            "doseNumberPositiveInt": 1,
            "seriesDosesPositiveInt": 1
          }
        ]
      },
      "request": {
        "method": "PUT",
        "url": "Immunization/TW00179-flu-1"
      }
    },
    {
      "resource": {
        "resourceType": "Patient",
        "id": "TW00136",
        "identifier": [
          {
            "system": "urn:oid:2.16.886.101.20003.20001",
            "value": "TW00136"
          }
        ],
        "name": [
          {
            "text": "李麗華",
            "family": "李",
            "given": [
              "麗華"
            ]
          }
        ],
        "gender": "female",
        "birthDate": "2000-10-06",
        "address": [
          {
            "city": "新竹縣",
            "country": "TW"
          }
        ]
      },
      "request": {
        "method": "PUT",
        "url": "Patient/TW00136"
      }
    },
    {
      "resource": {
        "resourceType": "Immunization",
        "id": "TW00136-flu-1",
        "status": "completed",
        "vaccineCode": {
          "coding": [
            {
              "system": "http://hl7.org/fhir/sid/cvx",
              "code": "185",
              "display": "Influenza, seasonal, injectable, quadrivalent"
            }
          ],
          "text": "Influenza vaccine"
        },
        "patient": {
          "reference": "Patient/TW00136"
        },
        "occurrenceDateTime": "2024-10-01",
        "primarySource": true,
        "lotNumber": "LOT103129",
        "expirationDate": "2026-12-31",
        "site": {
          "coding": [
            {
              "system": "http://terminology.hl7.org/CodeSystem/v3-ActSite",
              "code": "LA",
              "display": "left arm"
            }
          ]
        },
        "route": {
          "coding": [
            {
              "system": "http://terminology.hl7.org/CodeSystem/v3-RouteOfAdministration",
              "code": "IM",
              "display": "Injection, intramuscular"
            }
          ]
        },
        "doseQuantity": {
          "value": 0.5,
          "unit": "mL",
          "system": "http://unitsofmeasure.org",
          "code": "mL"
        },
        "protocolApplied": [
          {
            "doseNumberPositiveInt": 1,
            "seriesDosesPositiveInt": 1
          }
        ]
      },
      "request": {
        "method": "PUT",
        "url": "Immunization/TW00136-flu-1"
      }
    },
    {
      "resource": {
        "resourceType": "Patient",
        "id": "TW00180",
        "identifier": [
          {
            "system": "urn:oid:2.16.886.101.20003.20001",
            "value": "TW00180"
          }
        ],
        "name": [
          {
            "text": "楊美惠",
            "family": "楊",
            "given": [
              "美惠"
            ]
          }
        ],
        "gender": "female",
        "birthDate": "1941-02-11",
        "address": [
          {
            "city": "新竹市",
            "country": "TW"
          }
        ]
      },
      "request": {
        "method": "PUT",
        "url": "Patient/TW00180"
      }
    },
    {
      "resource": {
        "resourceType": "Immunization",
        "id": "TW00180-flu-1",
        "status": "completed",
        "vaccineCode": {
          "coding": [
            {
              "system": "http://hl7.org/fhir/sid/cvx",
              "code": "141",
              "display": "Influenza, seasonal, injectable"
            }
          ],
          "text": "Influenza vaccine"
        },
        "patient": {
          "reference": "Patient/TW00180"
        },
        "occurrenceDateTime": "2024-10-03",
        "primarySource": true,
        "lotNumber": "LOT100074",
        "expirationDate": "2026-12-31",
        "site": {
          "coding": [
            {
              "system": "http://terminology.hl7.org/CodeSystem/v3-ActSite",
              "code": "LA",
              "display": "left arm"
            }
          ]
        },
        "route": {
          "coding": [
            {
              "system": "http://terminology.hl7.org/CodeSystem/v3-RouteOfAdministration",
              "code": "IM",
              "display": "Injection, intramuscular"
            }
          ]
        },
        "doseQuantity": {
          "value": 0.5,
          "unit": "mL",
          "system": "http://unitsofmeasure.org",
          "code": "mL"
        },
        "protocolApplied": [
          {
            "doseNumberPositiveInt": 1,
            "seriesDosesPositiveInt": 1
          }
        ]
      },
      "request": {
        "method": "PUT",
        "url": "Immunization/TW00180-flu-1"
      }
    },
    {
      "resource": {
        "resourceType": "Patient",
        "id": "TW00115",
        "identifier": [
          {
            "system": "urn:oid:2.16.886.101.20003.20001",
            "value": "TW00115"
          }
        ],
        "name": [
          {
            "text": "洪志明",
            "family": "洪",
            "given": [
              "志明"
            ]
          }
        ],
        "gender": "male",
        "birthDate": "1967-12-19",
        "address": [
          {
            "city": "南投縣",
            "country": "TW"
          }
        ]
      },
      "request": {
        "method": "PUT",
        "url": "Patient/TW00115"
      }
    },
    {
      "resource": {
        "resourceType": "Immunization",
        "id": "TW00115-flu-1",
        "status": "completed",
        "vaccineCode": {
          "coding": [
            {
              "system": "http://hl7.org/fhir/sid/cvx",
              "code": "141",
              "display": "Influenza, seasonal, injectable"
            }
          ],
          "text": "Influenza vaccine"
        },
        "patient": {
          "reference": "Patient/TW00115"
        },
        "occurrenceDateTime": "2024-12-18",
        "primarySource": true,
        "lotNumber": "LOT245721",
        "expirationDate": "2026-12-31",
        "site": {
          "coding": [
            {
              "system": "http://terminology.hl7.org/CodeSystem/v3-ActSite",
              "code": "LA",
              "display": "left arm"
            }
          ]
        },
        "route": {
          "coding": [
            {
              "system": "http://terminology.hl7.org/CodeSystem/v3-RouteOfAdministration",
              "code": "IM",
              "display": "Injection, intramuscular"
            }
          ]
        },
        "doseQuantity": {
          "value": 0.5,
          "unit": "mL",
          "system": "http://unitsofmeasure.org",
          "code": "mL"
        },
        "protocolApplied": [
          {
            "doseNumberPositiveInt": 1,
            "seriesDosesPositiveInt": 1
          }
        ]
      },
      "request": {
        "method": "PUT",
        "url": "Immunization/TW00115-flu-1"
      }
    },
    {
      "resource": {
        "resourceType": "Patient",
        "id": "TW00175",
        "identifier": [
          {
            "system": "urn:oid:2.16.886.101.20003.20001",
            "value": "TW00175"
          }
        ],
        "name": [
          {
            "text": "吳淑娟",
            "family": "吳",
            "given": [
              "淑娟"
            ]
          }
        ],
        "gender": "female",
        "birthDate": "1972-07-10",
        "address": [
          {
            "city": "連江縣",
            "country": "TW"
          }
        ]
      },
      "request": {
        "method": "PUT",
        "url": "Patient/TW00175"
      }
    },
    {
      "resource": {
        "resourceType": "Immunization",
        "id": "TW00175-flu-1",
        "status": "completed",
        "vaccineCode": {
          "coding": [
            {
              "system": "http://hl7.org/fhir/sid/cvx",
              "code": "185",
              "display": "Influenza, seasonal, injectable, quadrivalent"
            }
          ],
          "text": "Influenza vaccine"
        },
        "patient": {
          "reference": "Patient/TW00175"
        },
        "occurrenceDateTime": "2024-12-22",
        "primarySource": true,
        "lotNumber": "LOT422080",
        "expirationDate": "2026-12-31",
        "site": {
          "coding": [
            {
              "system": "http://terminology.hl7.org/CodeSystem/v3-ActSite",
              "code": "LA",
              "display": "left arm"
            }
          ]
        },
        "route": {
          "coding": [
            {
              "system": "http://terminology.hl7.org/CodeSystem/v3-RouteOfAdministration",
              "code": "IM",
              "display": "Injection, intramuscular"
            }
          ]
        },
        "doseQuantity": {
          "value": 0.5,
          "unit": "mL",
          "system": "http://unitsofmeasure.org",
          "code": "mL"
        },
        "protocolApplied": [
          {
            "doseNumberPositiveInt": 1,
            "seriesDosesPositiveInt": 1
          }
        ]
      },
      "request": {
        "method": "PUT",
        "url": "Immunization/TW00175-flu-1"
      }
    },
    {
      "resource": {
        "resourceType": "Patient",
        "id": "TW00102",
        "identifier": [
          {
            "system": "urn:oid:2.16.886.101.20003.20001",
            "value": "TW00102"
          }
        ],
        "name": [
          {
            "text": "鄭志明",
            "family": "鄭",
            "given": [
              "志明"
            ]
          }
        ],
        "gender": "male",
        "birthDate": "1951-02-17",
        "address": [
          {
            "city": "新北市",
            "country": "TW"
          }
        ]
      },
      "request": {
        "method": "PUT",
        "url": "Patient/TW00102"
      }
    },
    {
      "resource": {
        "resourceType": "Immunization",
        "id": "TW00102-flu-1",
        "status": "completed",
        "vaccineCode": {
          "coding": [
            {
              "system": "http://hl7.org/fhir/sid/cvx",
              "code": "185",
              "display": "Influenza, seasonal, injectable, quadrivalent"
            }
          ],
          "text": "Influenza vaccine"
        },
        "patient": {
          "reference": "Patient/TW00102"
        },
        "occurrenceDateTime": "2025-01-15",
        "primarySource": true,
        "lotNumber": "LOT746024",
        "expirationDate": "2026-12-31",
        "site": {
          "coding": [
            {
              "system": "http://terminology.hl7.org/CodeSystem/v3-ActSite",
              "code": "LA",
              "display": "left arm"
            }
          ]
        },
        "route": {
          "coding": [
            {
              "system": "http://terminology.hl7.org/CodeSystem/v3-RouteOfAdministration",
              "code": "IM",
              "display": "Injection, intramuscular"
            }
          ]
        },
        "doseQuantity": {
          "value": 0.5,
          "unit": "mL",
          "system": "http://unitsofmeasure.org",
          "code": "mL"
        },
        "protocolApplied": [
          {
            "doseNumberPositiveInt": 1,
            "seriesDosesPositiveInt": 1
          }
        ]
      },
      "request": {
        "method": "PUT",
        "url": "Immunization/TW00102-flu-1"
      }
    },
    {
      "resource": {
        "resourceType": "Patient",
        "id": "TW00161",
        "identifier": [
          {
            "system": "urn:oid:2.16.886.101.20003.20001",
            "value": "TW00161"
          }
        ],
        "name": [
          {
            "text": "曾秀英",
            "family": "曾",
            "given": [
              "秀英"
            ]
          }
        ],
        "gender": "female",
        "birthDate": "1946-04-04",
        "address": [
          {
            "city": "南投縣",
            "country": "TW"
          }
        ]
      },
      "request": {
        "method": "PUT",
        "url": "Patient/TW00161"
      }
    },
    {
      "resource": {
        "resourceType": "Immunization",
        "id": "TW00161-flu-1",
        "status": "completed",
        "vaccineCode": {
          "coding": [
            {
              "system": "http://hl7.org/fhir/sid/cvx",
              "code": "141",
              "display": "Influenza, seasonal, injectable"
            }
          ],
          "text": "Influenza vaccine"
        },
        "patient": {
          "reference": "Patient/TW00161"
        },
        "occurrenceDateTime": "2024-10-12",
        "primarySource": true,
        "lotNumber": "LOT994618",
        "expirationDate": "2026-12-31",
        "site": {
          "coding": [
            {
              "system": "http://terminology.hl7.org/CodeSystem/v3-ActSite",
              "code": "LA",
              "display": "left arm"
            }
          ]
        },
        "route": {
          "coding": [
            {
              "system": "http://terminology.hl7.org/CodeSystem/v3-RouteOfAdministration",
              "code": "IM",
              "display": "Injection, intramuscular"
            }
          ]
        },
        "doseQuantity": {
          "value": 0.5,
          "unit": "mL",
          "system": "http://unitsofmeasure.org",
          "code": "mL"
        },
        "protocolApplied": [
          {
            "doseNumberPositiveInt": 1,
            "seriesDosesPositiveInt": 1
          }
        ]
      },
      "request": {
        "method": "PUT",
        "url": "Immunization/TW00161-flu-1"
      }
    },
    {
      "resource": {
        "resourceType": "Patient",
        "id": "TW00103",
        "identifier": [
          {
            "system": "urn:oid:2.16.886.101.20003.20001",
            "value": "TW00103"
          }
        ],
        "name": [
          {
            "text": "徐秀英",
            "family": "徐",
            "given": [
              "秀英"
            ]
          }
        ],
        "gender": "female",
        "birthDate": "1954-04-04",
        "address": [
          {
            "city": "台中市",
            "country": "TW"
          }
        ]
      },
      "request": {
        "method": "PUT",
        "url": "Patient/TW00103"
      }
    },
    {
      "resource": {
        "resourceType": "Immunization",
        "id": "TW00103-flu-1",
        "status": "completed",
        "vaccineCode": {
          "coding": [
            {
              "system": "http://hl7.org/fhir/sid/cvx",
              "code": "185",
              "display": "Influenza, seasonal, injectable, quadrivalent"
            }
          ],
          "text": "Influenza vaccine"
        },
        "patient": {
          "reference": "Patient/TW00103"
        },
        "occurrenceDateTime": "2024-12-01",
        "primarySource": true,
        "lotNumber": "LOT521826",
        "expirationDate": "2026-12-31",
        "site": {
          "coding": [
            {
              "system": "http://terminology.hl7.org/CodeSystem/v3-ActSite",
              "code": "LA",
              "display": "left arm"
            }
          ]
        },
        "route": {
          "coding": [
            {
              "system": "http://terminology.hl7.org/CodeSystem/v3-RouteOfAdministration",
              "code": "IM",
              "display": "Injection, intramuscular"
            }
          ]
        },
        "doseQuantity": {
          "value": 0.5,
          "unit": "mL",
          "system": "http://unitsofmeasure.org",
          "code": "mL"
        },
        "protocolApplied": [
          {
            "doseNumberPositiveInt": 1,
            "seriesDosesPositiveInt": 1
          }
        ]
      },
      "request": {
        "method": "PUT",
        "url": "Immunization/TW00103-flu-1"
      }
    },
    {
      "resource": {
        "resourceType": "Patient",
        "id": "TW00122",
        "identifier": [
          {
            "system": "urn:oid:2.16.886.101.20003.20001",
            "value": "TW00122"
          }
        ],
        "name": [
          {
            "text": "黃家銘",
            "family": "黃",
            "given": [
              "家銘"
            ]
          }
        ],
        "gender": "male",
        "birthDate": "1957-11-15",
        "address": [
          {
            "city": "連江縣",
            "country": "TW"
          }
        ]
      },
      "request": {
        "method": "PUT",
        "url": "Patient/TW00122"
      }
    },
    {
      "resource": {
        "resourceType": "Immunization",
        "id": "TW00122-flu-1",
        "status": "completed",
        "vaccineCode": {
          "coding": [
            {
              "system": "http://hl7.org/fhir/sid/cvx",
              "code": "185",
              "display": "Influenza, seasonal, injectable, quadrivalent"
            }
          ],
          "text": "Influenza vaccine"
        },
        "patient": {
          "reference": "Patient/TW00122"
        },
        "occurrenceDateTime": "2024-12-14",
        "primarySource": true,
        "lotNumber": "LOT388654",
        "expirationDate": "2026-12-31",
        "site": {
          "coding": [
            {
              "system": "http://terminology.hl7.org/CodeSystem/v3-ActSite",
              "code": "LA",
              "display": "left arm"
            }
          ]
        },
        "route": {
          "coding": [
            {
              "system": "http://terminology.hl7.org/CodeSystem/v3-RouteOfAdministration",
              "code": "IM",
              "display": "Injection, intramuscular"
            }
          ]
        },
        "doseQuantity": {
          "value": 0.5,
          "unit": "mL",
          "system": "http://unitsofmeasure.org",
          "code": "mL"
        },
        "protocolApplied": [
          {
            "doseNumberPositiveInt": 1,
            "seriesDosesPositiveInt": 1
          }
        ]
      },
      "request": {
        "method": "PUT",
        "url": "Immunization/TW00122-flu-1"
      }
    },
    {
      "resource": {
        "resourceType": "Patient",
        "id": "TW00121",
        "identifier": [
          {
            "system": "urn:oid:2.16.886.101.20003.20001",
            "value": "TW00121"
          }
        ],
        "name": [
          {
            "text": "徐佳穎",
            "family": "徐",
            "given": [
              "佳穎"
            ]
          }
        ],
        "gender": "female",
        "birthDate": "1950-04-16",
        "address": [
          {
            "city": "宜蘭縣",
            "country": "TW"
          }
        ]
      },
      "request": {
        "method": "PUT",
        "url": "Patient/TW00121"
      }
    },
    {
      "resource": {
        "resourceType": "Immunization",
        "id": "TW00121-flu-1",
        "status": "completed",
        "vaccineCode": {
          "coding": [
            {
              "system": "http://hl7.org/fhir/sid/cvx",
              "code": "141",
              "display": "Influenza, seasonal, injectable"
            }
          ],
          "text": "Influenza vaccine"
        },
        "patient": {
          "reference": "Patient/TW00121"
        },
        "occurrenceDateTime": "2024-10-26",
        "primarySource": true,
        "lotNumber": "LOT288183",
        "expirationDate": "2026-12-31",
        "site": {
          "coding": [
            {
              "system": "http://terminology.hl7.org/CodeSystem/v3-ActSite",
              "code": "LA",
              "display": "left arm"
            }
          ]
        },
        "route": {
          "coding": [
            {
              "system": "http://terminology.hl7.org/CodeSystem/v3-RouteOfAdministration",
              "code": "IM",
              "display": "Injection, intramuscular"
            }
          ]
        },
        "doseQuantity": {
          "value": 0.5,
          "unit": "mL",
          "system": "http://unitsofmeasure.org",
          "code": "mL"
        },
        "protocolApplied": [
          {
            "doseNumberPositiveInt": 1,
            "seriesDosesPositiveInt": 1
          }
        ]
      },
      "request": {
        "method": "PUT",
        "url": "Immunization/TW00121-flu-1"
      }
    },
    {
      "resource": {
        "resourceType": "Patient",
        "id": "TW00191",
        "identifier": [
          {
            "system": "urn:oid:2.16.886.101.20003.20001",
            "value": "TW00191"
          }
        ],
        "name": [
          {
            "text": "謝怡萱",
            "family": "謝",
            "given": [
              "怡萱"
            ]
          }
        ],
        "gender": "female",
        "birthDate": "1987-11-21",
        "address": [
          {
            "city": "新竹縣",
            "country": "TW"
          }
        ]
      },
      "request": {
        "method": "PUT",
        "url": "Patient/TW00191"
      }
    },
    {
      "resource": {
        "resourceType": "Immunization",
        "id": "TW00191-flu-1",
        "status": "completed",
        "vaccineCode": {
          "coding": [
            {
              "system": "http://hl7.org/fhir/sid/cvx",
              "code": "141",
              "display": "Influenza, seasonal, injectable"
            }
          ],
          "text": "Influenza vaccine"
        },
        "patient": {
          "reference": "Patient/TW00191"
        },
        "occurrenceDateTime": "2024-12-05",
        "primarySource": true,
        "lotNumber": "LOT422821",
        "expirationDate": "2026-12-31",
        "site": {
          "coding": [
            {
              "system": "http://terminology.hl7.org/CodeSystem/v3-ActSite",
              "code": "LA",
              "display": "left arm"
            }
          ]
        },
        "route": {
          "coding": [
            {
              "system": "http://terminology.hl7.org/CodeSystem/v3-RouteOfAdministration",
              "code": "IM",
              "display": "Injection, intramuscular"
            }
          ]
        },
        "doseQuantity": {
          "value": 0.5,
          "unit": "mL",
          "system": "http://unitsofmeasure.org",
          "code": "mL"
        },
        "protocolApplied": [
          {
            "doseNumberPositiveInt": 1,
            "seriesDosesPositiveInt": 1
          }
        ]
      },
      "request": {
        "method": "PUT",
        "url": "Immunization/TW00191-flu-1"
      }
    },
    {
      "resource": {
        "resourceType": "Patient",
        "id": "TW00148",
        "identifier": [
          {
            "system": "urn:oid:2.16.886.101.20003.20001",
            "value": "TW00148"
          }
        ],
        "name": [
          {
            "text": "陳佳穎",
            "family": "陳",
            "given": [
              "佳穎"
            ]
          }
        ],
        "gender": "female",
        "birthDate": "1966-06-17",
        "address": [
          {
            "city": "澎湖縣",
            "country": "TW"
          }
        ]
      },
      "request": {
        "method": "PUT",
        "url": "Patient/TW00148"
      }
    },
    {
      "resource": {
        "resourceType": "Immunization",
        "id": "TW00148-flu-1",
        "status": "completed",
        "vaccineCode": {
          "coding": [
            {
              "system": "http://hl7.org/fhir/sid/cvx",
              "code": "185",
              "display": "Influenza, seasonal, injectable, quadrivalent"
            }
          ],
          "text": "Influenza vaccine"
        },
        "patient": {
          "reference": "Patient/TW00148"
        },
        "occurrenceDateTime": "2024-12-27",
        "primarySource": true,
        "lotNumber": "LOT631193",
        "expirationDate": "2026-12-31",
        "site": {
          "coding": [
            {
              "system": "http://terminology.hl7.org/CodeSystem/v3-ActSite",
              "code": "LA",
              "display": "left arm"
            }
          ]
        },
        "route": {
          "coding": [
            {
              "system": "http://terminology.hl7.org/CodeSystem/v3-RouteOfAdministration",
              "code": "IM",
              "display": "Injection, intramuscular"
            }
          ]
        },
        "doseQuantity": {
          "value": 0.5,
          "unit": "mL",
          "system": "http://unitsofmeasure.org",
          "code": "mL"
        },
        "protocolApplied": [
          {
            "doseNumberPositiveInt": 1,
            "seriesDosesPositiveInt": 1
          }
        ]
      },
      "request": {
        "method": "PUT",
        "url": "Immunization/TW00148-flu-1"
      }
    },
    {
      "resource": {
        "resourceType": "Patient",
        "id": "TW00192",
        "identifier": [
          {
            "system": "urn:oid:2.16.886.101.20003.20001",
            "value": "TW00192"
          }
        ],
        "name": [
          {
            "text": "楊志明",
            "family": "楊",
            "given": [
              "志明"
            ]
          }
        ],
        "gender": "male",
        "birthDate": "1951-05-19",
        "address": [
          {
            "city": "高雄市",
            "country": "TW"
          }
        ]
      },
      "request": {
        "method": "PUT",
        "url": "Patient/TW00192"
      }
    },
    {
      "resource": {
        "resourceType": "Immunization",
        "id": "TW00192-flu-1",
        "status": "completed",
        "vaccineCode": {
          "coding": [
            {
              "system": "http://hl7.org/fhir/sid/cvx",
              "code": "141",
              "display": "Influenza, seasonal, injectable"
            }
          ],
          "text": "Influenza vaccine"
        },
        "patient": {
          "reference": "Patient/TW00192"
        },
        "occurrenceDateTime": "2024-11-01",
        "primarySource": true,
        "lotNumber": "LOT804216",
        "expirationDate": "2026-12-31",
        "site": {
          "coding": [
            {
              "system": "http://terminology.hl7.org/CodeSystem/v3-ActSite",
              "code": "LA",
              "display": "left arm"
            }
          ]
        },
        "route": {
          "coding": [
            {
              "system": "http://terminology.hl7.org/CodeSystem/v3-RouteOfAdministration",
              "code": "IM",
              "display": "Injection, intramuscular"
            }
          ]
        },
        "doseQuantity": {
          "value": 0.5,
          "unit": "mL",
          "system": "http://unitsofmeasure.org",
          "code": "mL"
        },
        "protocolApplied": [
          {
            "doseNumberPositiveInt": 1,
            "seriesDosesPositiveInt": 1
          }
        ]
      },
      "request": {
        "method": "PUT",
        "url": "Immunization/TW00192-flu-1"
      }
    },
    {
      "resource": {
        "resourceType": "Patient",
        "id": "TW00116",
        "identifier": [
          {
            "system": "urn:oid:2.16.886.101.20003.20001",
            "value": "TW00116"
          }
        ],
        "name": [
          {
            "text": "鄭麗華",
            "family": "鄭",
            "given": [
              "麗華"
            ]
          }
        ],
        "gender": "female",
        "birthDate": "1964-11-16",
        "address": [
          {
            "city": "新竹縣",
            "country": "TW"
          }
        ]
      },
      "request": {
        "method": "PUT",
        "url": "Patient/TW00116"
      }
    },
    {
      "resource": {
        "resourceType": "Immunization",
        "id": "TW00116-flu-1",
        "status": "completed",
        "vaccineCode": {
          "coding": [
            {
              "system": "http://hl7.org/fhir/sid/cvx",
              "code": "141",
              "display": "Influenza, seasonal, injectable"
            }
          ],
          "text": "Influenza vaccine"
        },
        "patient": {
          "reference": "Patient/TW00116"
        },
        "occurrenceDateTime": "2024-12-19",
        "primarySource": true,
        "lotNumber": "LOT587509",
        "expirationDate": "2026-12-31",
        "site": {
          "coding": [
            {
              "system": "http://terminology.hl7.org/CodeSystem/v3-ActSite",
              "code": "LA",
              "display": "left arm"
            }
          ]
        },
        "route": {
          "coding": [
            {
              "system": "http://terminology.hl7.org/CodeSystem/v3-RouteOfAdministration",
              "code": "IM",
              "display": "Injection, intramuscular"
            }
          ]
        },
        "doseQuantity": {
          "value": 0.5,
          "unit": "mL",
          "system": "http://unitsofmeasure.org",
          "code": "mL"
        },
        "protocolApplied": [
          {
            "doseNumberPositiveInt": 1,
            "seriesDosesPositiveInt": 1
          }
        ]
      },
      "request": {
        "method": "PUT",
        "url": "Immunization/TW00116-flu-1"
      }
    },
    {
      "resource": {
        "resourceType": "Patient",
        "id": "TW00164",
        "identifier": [
          {
            "system": "urn:oid:2.16.886.101.20003.20001",
            "value": "TW00164"
          }
        ],
        "name": [
          {
            "text": "鄭家銘",
            "family": "鄭",
            "given": [
              "家銘"
            ]
          }
        ],
        "gender": "male",
        "birthDate": "1952-08-12",
        "address": [
          {
            "city": "金門縣",
            "country": "TW"
          }
        ]
      },
      "request": {
        "method": "PUT",
        "url": "Patient/TW00164"
      }
    },
    {
      "resource": {
        "resourceType": "Immunization",
        "id": "TW00164-flu-1",
        "status": "completed",
        "vaccineCode": {
          "coding": [
            {
              "system": "http://hl7.org/fhir/sid/cvx",
              "code": "141",
              "display": "Influenza, seasonal, injectable"
            }
          ],
          "text": "Influenza vaccine"
        },
        "patient": {
          "reference": "Patient/TW00164"
        },
        "occurrenceDateTime": "2024-10-18",
        "primarySource": true,
        "lotNumber": "LOT581406",
        "expirationDate": "2026-12-31",
        "site": {
          "coding": [
            {
              "system": "http://terminology.hl7.org/CodeSystem/v3-ActSite",
              "code": "LA",
              "display": "left arm"
            }
          ]
        },
        "route": {
          "coding": [
            {
              "system": "http://terminology.hl7.org/CodeSystem/v3-RouteOfAdministration",
              "code": "IM",
              "display": "Injection, intramuscular"
            }
          ]
        },
        "doseQuantity": {
          "value": 0.5,
          "unit": "mL",
          "system": "http://unitsofmeasure.org",
          "code": "mL"
        },
        "protocolApplied": [
          {
            "doseNumberPositiveInt": 1,
            "seriesDosesPositiveInt": 1
          }
        ]
      },
      "request": {
        "method": "PUT",
        "url": "Immunization/TW00164-flu-1"
      }
    },
    {
      "resource": {
        "resourceType": "Patient",
        "id": "TW00145",
        "identifier": [
          {
            "system": "urn:oid:2.16.886.101.20003.20001",
            "value": "TW00145"
          }
        ],
        "name": [
          {
            "text": "鄭志明",
            "family": "鄭",
            "given": [
              "志明"
            ]
          }
        ],
        "gender": "male",
        "birthDate": "1974-03-18",
        "address": [
          {
            "city": "花蓮縣",
            "country": "TW"
          }
        ]
      },
      "request": {
        "method": "PUT",
        "url": "Patient/TW00145"
      }
    },
    {
      "resource": {
        "resourceType": "Immunization",
        "id": "TW00145-flu-1",
        "status": "completed",
        "vaccineCode": {
          "coding": [
            {
              "system": "http://hl7.org/fhir/sid/cvx",
              "code": "185",
              "display": "Influenza, seasonal, injectable, quadrivalent"
            }
          ],
          "text": "Influenza vaccine"
        },
        "patient": {
          "reference": "Patient/TW00145"
        },
        "occurrenceDateTime": "2024-11-29",
        "primarySource": true,
        "lotNumber": "LOT461409",
        "expirationDate": "2026-12-31",
        "site": {
          "coding": [
            {
              "system": "http://terminology.hl7.org/CodeSystem/v3-ActSite",
              "code": "LA",
              "display": "left arm"
            }
          ]
        },
        "route": {
          "coding": [
            {
              "system": "http://terminology.hl7.org/CodeSystem/v3-RouteOfAdministration",
              "code": "IM",
              "display": "Injection, intramuscular"
            }
          ]
        },
        "doseQuantity": {
          "value": 0.5,
          "unit": "mL",
          "system": "http://unitsofmeasure.org",
          "code": "mL"
        },
        "protocolApplied": [
          {
            "doseNumberPositiveInt": 1,
            "seriesDosesPositiveInt": 1
          }
        ]
      },
      "request": {
        "method": "PUT",
        "url": "Immunization/TW00145-flu-1"
      }
    },
    {
      "resource": {
        "resourceType": "Patient",
        "id": "TW00120",
        "identifier": [
          {
            "system": "urn:oid:2.16.886.101.20003.20001",
            "value": "TW00120"
          }
        ],
        "name": [
          {
            "text": "郭淑玲",
            "family": "郭",
            "given": [
              "淑玲"
            ]
          }
        ],
        "gender": "female",
        "birthDate": "1982-02-01",
        "address": [
          {
            "city": "台南市",
            "country": "TW"
          }
        ]
      },
      "request": {
        "method": "PUT",
        "url": "Patient/TW00120"
      }
    },
    {
      "resource": {
        "resourceType": "Immunization",
        "id": "TW00120-flu-1",
        "status": "completed",
        "vaccineCode": {
          "coding": [
            {
              "system": "http://hl7.org/fhir/sid/cvx",
              "code": "185",
              "display": "Influenza, seasonal, injectable, quadrivalent"
            }
          ],
          "text": "Influenza vaccine"
        },
        "patient": {
          "reference": "Patient/TW00120"
        },
        "occurrenceDateTime": "2024-12-29",
        "primarySource": true,
        "lotNumber": "LOT611629",
        "expirationDate": "2026-12-31",
        "site": {
          "coding": [
            {
              "system": "http://terminology.hl7.org/CodeSystem/v3-ActSite",
              "code": "LA",
              "display": "left arm"
            }
          ]
        },
        "route": {
          "coding": [
            {
              "system": "http://terminology.hl7.org/CodeSystem/v3-RouteOfAdministration",
              "code": "IM",
              "display": "Injection, intramuscular"
            }
          ]
        },
        "doseQuantity": {
          "value": 0.5,
          "unit": "mL",
          "system": "http://unitsofmeasure.org",
          "code": "mL"
        },
        "protocolApplied": [
          {
            "doseNumberPositiveInt": 1,
            "seriesDosesPositiveInt": 1
          }
        ]
      },
      "request": {
        "method": "PUT",
        "url": "Immunization/TW00120-flu-1"
      }
    },
    {
      "resource": {
        "resourceType": "Patient",
        "id": "TW00138",
        "identifier": [
          {
            "system": "urn:oid:2.16.886.101.20003.20001",
            "value": "TW00138"
          }
        ],
        "name": [
          {
            "text": "王家銘",
            "family": "王",
            "given": [
              "家銘"
            ]
          }
        ],
        "gender": "male",
        "birthDate": "1945-04-21",
        "address": [
          {
            "city": "台北市",
            "country": "TW"
          }
        ]
      },
      "request": {
        "method": "PUT",
        "url": "Patient/TW00138"
      }
    },
    {
      "resource": {
        "resourceType": "Immunization",
        "id": "TW00138-flu-1",
        "status": "completed",
        "vaccineCode": {
          "coding": [
            {
              "system": "http://hl7.org/fhir/sid/cvx",
              "code": "141",
              "display": "Influenza, seasonal, injectable"
            }
          ],
          "text": "Influenza vaccine"
        },
        "patient": {
          "reference": "Patient/TW00138"
        },
        "occurrenceDateTime": "2025-01-13",
        "primarySource": true,
        "lotNumber": "LOT989138",
        "expirationDate": "2026-12-31",
        "site": {
          "coding": [
            {
              "system": "http://terminology.hl7.org/CodeSystem/v3-ActSite",
              "code": "LA",
              "display": "left arm"
            }
          ]
        },
        "route": {
          "coding": [
            {
              "system": "http://terminology.hl7.org/CodeSystem/v3-RouteOfAdministration",
              "code": "IM",
              "display": "Injection, intramuscular"
            }
          ]
        },
        "doseQuantity": {
          "value": 0.5,
          "unit": "mL",
          "system": "http://unitsofmeasure.org",
          "code": "mL"
        },
        "protocolApplied": [
          {
            "doseNumberPositiveInt": 1,
            "seriesDosesPositiveInt": 1
          }
        ]
      },
      "request": {
        "method": "PUT",
        "url": "Immunization/TW00138-flu-1"
      }
    },
    {
      "resource": {
        "resourceType": "Patient",
        "id": "TW00198",
        "identifier": [
          {
            "system": "urn:oid:2.16.886.101.20003.20001",
            "value": "TW00198"
          }
        ],
        "name": [
          {
            "text": "林怡君",
            "family": "林",
            "given": [
              "怡君"
            ]
          }
        ],
        "gender": "female",
        "birthDate": "1967-01-25",
        "address": [
          {
            "city": "金門縣",
            "country": "TW"
          }
        ]
      },
      "request": {
        "method": "PUT",
        "url": "Patient/TW00198"
      }
    },
    {
      "resource": {
        "resourceType": "Immunization",
        "id": "TW00198-flu-1",
        "status": "completed",
        "vaccineCode": {
          "coding": [
            {
              "system": "http://hl7.org/fhir/sid/cvx",
              "code": "185",
              "display": "Influenza, seasonal, injectable, quadrivalent"
            }
          ],
          "text": "Influenza vaccine"
        },
        "patient": {
          "reference": "Patient/TW00198"
        },
        "occurrenceDateTime": "2024-12-14",
        "primarySource": true,
        "lotNumber": "LOT491049",
        "expirationDate": "2026-12-31",
        "site": {
          "coding": [
            {
              "system": "http://terminology.hl7.org/CodeSystem/v3-ActSite",
              "code": "LA",
              "display": "left arm"
            }
          ]
        },
        "route": {
          "coding": [
            {
              "system": "http://terminology.hl7.org/CodeSystem/v3-RouteOfAdministration",
              "code": "IM",
              "display": "Injection, intramuscular"
            }
          ]
        },
        "doseQuantity": {
          "value": 0.5,
          "unit": "mL",
          "system": "http://unitsofmeasure.org",
          "code": "mL"
        },
        "protocolApplied": [
          {
            "doseNumberPositiveInt": 1,
            "seriesDosesPositiveInt": 1
          }
        ]
      },
      "request": {
        "method": "PUT",
        "url": "Immunization/TW00198-flu-1"
      }
    },
    {
      "resource": {
        "resourceType": "Patient",
        "id": "TW00152",
        "identifier": [
          {
            "system": "urn:oid:2.16.886.101.20003.20001",
            "value": "TW00152"
          }
        ],
        "name": [
          {
            "text": "邱雅婷",
            "family": "邱",
            "given": [
              "雅婷"
            ]
          }
        ],
        "gender": "female",
        "birthDate": "1983-05-26",
        "address": [
          {
            "city": "連江縣",
            "country": "TW"
          }
        ]
      },
      "request": {
        "method": "PUT",
        "url": "Patient/TW00152"
      }
    },
    {
      "resource": {
        "resourceType": "Immunization",
        "id": "TW00152-flu-1",
        "status": "completed",
        "vaccineCode": {
          "coding": [
            {
              "system": "http://hl7.org/fhir/sid/cvx",
              "code": "141",
              "display": "Influenza, seasonal, injectable"
            }
          ],
          "text": "Influenza vaccine"
        },
        "patient": {
          "reference": "Patient/TW00152"
        },
        "occurrenceDateTime": "2024-10-03",
        "primarySource": true,
        "lotNumber": "LOT686730",
        "expirationDate": "2026-12-31",
        "site": {
          "coding": [
            {
              "system": "http://terminology.hl7.org/CodeSystem/v3-ActSite",
              "code": "LA",
              "display": "left arm"
            }
          ]
        },
        "route": {
          "coding": [
            {
              "system": "http://terminology.hl7.org/CodeSystem/v3-RouteOfAdministration",
              "code": "IM",
              "display": "Injection, intramuscular"
            }
          ]
        },
        "doseQuantity": {
          "value": 0.5,
          "unit": "mL",
          "system": "http://unitsofmeasure.org",
          "code": "mL"
        },
        "protocolApplied": [
          {
            "doseNumberPositiveInt": 1,
            "seriesDosesPositiveInt": 1
          }
        ]
      },
      "request": {
        "method": "PUT",
        "url": "Immunization/TW00152-flu-1"
      }
    },
    {
      "resource": {
        "resourceType": "Patient",
        "id": "TW00101",
        "identifier": [
          {
            "system": "urn:oid:2.16.886.101.20003.20001",
            "value": "TW00101"
          }
        ],
        "name": [
          {
            "text": "賴美玲",
            "family": "賴",
            "given": [
              "美玲"
            ]
          }
        ],
        "gender": "female",
        "birthDate": "1981-12-16",
        "address": [
          {
            "city": "新竹市",
            "country": "TW"
          }
        ]
      },
      "request": {
        "method": "PUT",
        "url": "Patient/TW00101"
      }
    },
    {
      "resource": {
        "resourceType": "Immunization",
        "id": "TW00101-flu-1",
        "status": "completed",
        "vaccineCode": {
          "coding": [
            {
              "system": "http://hl7.org/fhir/sid/cvx",
              "code": "185",
              "display": "Influenza, seasonal, injectable, quadrivalent"
            }
          ],
          "text": "Influenza vaccine"
        },
        "patient": {
          "reference": "Patient/TW00101"
        },
        "occurrenceDateTime": "2024-11-03",
        "primarySource": true,
        "lotNumber": "LOT445890",
        "expirationDate": "2026-12-31",
        "site": {
          "coding": [
            {
              "system": "http://terminology.hl7.org/CodeSystem/v3-ActSite",
              "code": "LA",
              "display": "left arm"
            }
          ]
        },
        "route": {
          "coding": [
            {
              "system": "http://terminology.hl7.org/CodeSystem/v3-RouteOfAdministration",
              "code": "IM",
              "display": "Injection, intramuscular"
            }
          ]
        },
        "doseQuantity": {
          "value": 0.5,
          "unit": "mL",
          "system": "http://unitsofmeasure.org",
          "code": "mL"
        },
        "protocolApplied": [
          {
            "doseNumberPositiveInt": 1,
            "seriesDosesPositiveInt": 1
          }
        ]
      },
      "request": {
        "method": "PUT",
        "url": "Immunization/TW00101-flu-1"
      }
    },
    {
      "resource": {
        "resourceType": "Patient",
        "id": "TW00131",
        "identifier": [
          {
            "system": "urn:oid:2.16.886.101.20003.20001",
            "value": "TW00131"
          }
        ],
        "name": [
          {
            "text": "吳詩涵",
            "family": "吳",
            "given": [
              "詩涵"
            ]
          }
        ],
        "gender": "female",
        "birthDate": "1958-03-17",
        "address": [
          {
            "city": "雲林縣",
            "country": "TW"
          }
        ]
      },
      "request": {
        "method": "PUT",
        "url": "Patient/TW00131"
      }
    },
    {
      "resource": {
        "resourceType": "Immunization",
        "id": "TW00131-flu-1",
        "status": "completed",
        "vaccineCode": {
          "coding": [
            {
              "system": "http://hl7.org/fhir/sid/cvx",
              "code": "185",
              "display": "Influenza, seasonal, injectable, quadrivalent"
            }
          ],
          "text": "Influenza vaccine"
        },
        "patient": {
          "reference": "Patient/TW00131"
        },
        "occurrenceDateTime": "2024-10-28",
        "primarySource": true,
        "lotNumber": "LOT952494",
        "expirationDate": "2026-12-31",
        "site": {
          "coding": [
            {
              "system": "http://terminology.hl7.org/CodeSystem/v3-ActSite",
              "code": "LA",
              "display": "left arm"
            }
          ]
        },
        "route": {
          "coding": [
            {
              "system": "http://terminology.hl7.org/CodeSystem/v3-RouteOfAdministration",
              "code": "IM",
              "display": "Injection, intramuscular"
            }
          ]
        },
        "doseQuantity": {
          "value": 0.5,
          "unit": "mL",
          "system": "http://unitsofmeasure.org",
          "code": "mL"
        },
        "protocolApplied": [
          {
            "doseNumberPositiveInt": 1,
            "seriesDosesPositiveInt": 1
          }
        ]
      },
      "request": {
        "method": "PUT",
        "url": "Immunization/TW00131-flu-1"
      }
    },
    {
      "resource": {
        "resourceType": "Patient",
        "id": "TW00146",
        "identifier": [
          {
            "system": "urn:oid:2.16.886.101.20003.20001",
            "value": "TW00146"
          }
        ],
        "name": [
          {
            "text": "賴宇軒",
            "family": "賴",
            "given": [
              "宇軒"
            ]
          }
        ],
        "gender": "male",
        "birthDate": "1967-11-04",
        "address": [
          {
            "city": "高雄市",
            "country": "TW"
          }
        ]
      },
      "request": {
        "method": "PUT",
        "url": "Patient/TW00146"
      }
    },
    {
      "resource": {
        "resourceType": "Immunization",
        "id": "TW00146-flu-1",
        "status": "completed",
        "vaccineCode": {
          "coding": [
            {
              "system": "http://hl7.org/fhir/sid/cvx",
              "code": "185",
              "display": "Influenza, seasonal, injectable, quadrivalent"
            }
          ],
          "text": "Influenza vaccine"
        },
        "patient": {
          "reference": "Patient/TW00146"
        },
        "occurrenceDateTime": "2024-11-22",
        "primarySource": true,
        "lotNumber": "LOT438262",
        "expirationDate": "2026-12-31",
        "site": {
          "coding": [
            {
              "system": "http://terminology.hl7.org/CodeSystem/v3-ActSite",
              "code": "LA",
              "display": "left arm"
            }
          ]
        },
        "route": {
          "coding": [
            {
              "system": "http://terminology.hl7.org/CodeSystem/v3-RouteOfAdministration",
              "code": "IM",
              "display": "Injection, intramuscular"
            }
          ]
        },
        "doseQuantity": {
          "value": 0.5,
          "unit": "mL",
          "system": "http://unitsofmeasure.org",
          "code": "mL"
        },
        "protocolApplied": [
          {
            "doseNumberPositiveInt": 1,
            "seriesDosesPositiveInt": 1
          }
        ]
      },
      "request": {
        "method": "PUT",
        "url": "Immunization/TW00146-flu-1"
      }
    },
    {
      "resource": {
        "resourceType": "Patient",
        "id": "TW00130",
        "identifier": [
          {
            "system": "urn:oid:2.16.886.101.20003.20001",
            "value": "TW00130"
          }
        ],
        "name": [
          {
            "text": "楊家銘",
            "family": "楊",
            "given": [
              "家銘"
            ]
          }
        ],
        "gender": "male",
        "birthDate": "1954-03-10",
        "address": [
          {
            "city": "高雄市",
            "country": "TW"
          }
        ]
      },
      "request": {
        "method": "PUT",
        "url": "Patient/TW00130"
      }
    },
    {
      "resource": {
        "resourceType": "Immunization",
        "id": "TW00130-flu-1",
        "status": "completed",
        "vaccineCode": {
          "coding": [
            {
              "system": "http://hl7.org/fhir/sid/cvx",
              "code": "185",
              "display": "Influenza, seasonal, injectable, quadrivalent"
            }
          ],
          "text": "Influenza vaccine"
        },
        "patient": {
          "reference": "Patient/TW00130"
        },
        "occurrenceDateTime": "2024-11-19",
        "primarySource": true,
        "lotNumber": "LOT302372",
        "expirationDate": "2026-12-31",
        "site": {
          "coding": [
            {
              "system": "http://terminology.hl7.org/CodeSystem/v3-ActSite",
              "code": "LA",
              "display": "left arm"
            }
          ]
        },
        "route": {
          "coding": [
            {
              "system": "http://terminology.hl7.org/CodeSystem/v3-RouteOfAdministration",
              "code": "IM",
              "display": "Injection, intramuscular"
            }
          ]
        },
        "doseQuantity": {
          "value": 0.5,
          "unit": "mL",
          "system": "http://unitsofmeasure.org",
          "code": "mL"
        },
        "protocolApplied": [
          {
            "doseNumberPositiveInt": 1,
            "seriesDosesPositiveInt": 1
          }
        ]
      },
      "request": {
        "method": "PUT",
        "url": "Immunization/TW00130-flu-1"
      }
    },
    {
      "resource": {
        "resourceType": "Patient",
        "id": "TW00176",
        "identifier": [
          {
            "system": "urn:oid:2.16.886.101.20003.20001",
            "value": "TW00176"
          }
        ],
        "name": [
          {
            "text": "蔡明哲",
            "family": "蔡",
            "given": [
              "明哲"
            ]
          }
        ],
        "gender": "male",
        "birthDate": "2007-02-26",
        "address": [
          {
            "city": "彰化縣",
            "country": "TW"
          }
        ]
      },
      "request": {
        "method": "PUT",
        "url": "Patient/TW00176"
      }
    },
    {
      "resource": {
        "resourceType": "Immunization",
        "id": "TW00176-flu-1",
        "status": "completed",
        "vaccineCode": {
          "coding": [
            {
              "system": "http://hl7.org/fhir/sid/cvx",
              "code": "141",
              "display": "Influenza, seasonal, injectable"
            }
          ],
          "text": "Influenza vaccine"
        },
        "patient": {
          "reference": "Patient/TW00176"
        },
        "occurrenceDateTime": "2024-11-25",
        "primarySource": true,
        "lotNumber": "LOT787836",
        "expirationDate": "2026-12-31",
        "site": {
          "coding": [
            {
              "system": "http://terminology.hl7.org/CodeSystem/v3-ActSite",
              "code": "LA",
              "display": "left arm"
            }
          ]
        },
        "route": {
          "coding": [
            {
              "system": "http://terminology.hl7.org/CodeSystem/v3-RouteOfAdministration",
              "code": "IM",
              "display": "Injection, intramuscular"
            }
          ]
        },
        "doseQuantity": {
          "value": 0.5,
          "unit": "mL",
          "system": "http://unitsofmeasure.org",
          "code": "mL"
        },
        "protocolApplied": [
          {
            "doseNumberPositiveInt": 1,
            "seriesDosesPositiveInt": 1
          }
        ]
      },
      "request": {
        "method": "PUT",
        "url": "Immunization/TW00176-flu-1"
      }
    },
    {
      "resource": {
        "resourceType": "Patient",
        "id": "TW00127",
        "identifier": [
          {
            "system": "urn:oid:2.16.886.101.20003.20001",
            "value": "TW00127"
          }
        ],
        "name": [
          {
            "text": "楊家豪",
            "family": "楊",
            "given": [
              "家豪"
            ]
          }
        ],
        "gender": "male",
        "birthDate": "1975-06-14",
        "address": [
          {
            "city": "新竹市",
            "country": "TW"
          }
        ]
      },
      "request": {
        "method": "PUT",
        "url": "Patient/TW00127"
      }
    },
    {
      "resource": {
        "resourceType": "Immunization",
        "id": "TW00127-flu-1",
        "status": "completed",
        "vaccineCode": {
          "coding": [
            {
              "system": "http://hl7.org/fhir/sid/cvx",
              "code": "141",
              "display": "Influenza, seasonal, injectable"
            }
          ],
          "text": "Influenza vaccine"
        },
        "patient": {
          "reference": "Patient/TW00127"
        },
        "occurrenceDateTime": "2024-10-14",
        "primarySource": true,
        "lotNumber": "LOT574775",
        "expirationDate": "2026-12-31",
        "site": {
          "coding": [
            {
              "system": "http://terminology.hl7.org/CodeSystem/v3-ActSite",
              "code": "LA",
              "display": "left arm"
            }
          ]
        },
        "route": {
          "coding": [
            {
              "system": "http://terminology.hl7.org/CodeSystem/v3-RouteOfAdministration",
              "code": "IM",
              "display": "Injection, intramuscular"
            }
          ]
        },
        "doseQuantity": {
          "value": 0.5,
          "unit": "mL",
          "system": "http://unitsofmeasure.org",
          "code": "mL"
        },
        "protocolApplied": [
          {
            "doseNumberPositiveInt": 1,
            "seriesDosesPositiveInt": 1
          }
        ]
      },
      "request": {
        "method": "PUT",
        "url": "Immunization/TW00127-flu-1"
      }
    },
    {
      "resource": {
        "resourceType": "Patient",
        "id": "TW00172",
        "identifier": [
          {
            "system": "urn:oid:2.16.886.101.20003.20001",
            "value": "TW00172"
          }
        ],
        "name": [
          {
            "text": "謝秀英",
            "family": "謝",
            "given": [
              "秀英"
            ]
          }
        ],
        "gender": "female",
        "birthDate": "1961-01-05",
        "address": [
          {
            "city": "台東縣",
            "country": "TW"
          }
        ]
      },
      "request": {
        "method": "PUT",
        "url": "Patient/TW00172"
      }
    },
    {
      "resource": {
        "resourceType": "Immunization",
        "id": "TW00172-flu-1",
        "status": "completed",
        "vaccineCode": {
          "coding": [
            {
              "system": "http://hl7.org/fhir/sid/cvx",
              "code": "185",
              "display": "Influenza, seasonal, injectable, quadrivalent"
            }
          ],
          "text": "Influenza vaccine"
        },
        "patient": {
          "reference": "Patient/TW00172"
        },
        "occurrenceDateTime": "2024-12-20",
        "primarySource": true,
        "lotNumber": "LOT837073",
        "expirationDate": "2026-12-31",
        "site": {
          "coding": [
            {
              "system": "http://terminology.hl7.org/CodeSystem/v3-ActSite",
              "code": "LA",
              "display": "left arm"
            }
          ]
        },
        "route": {
          "coding": [
            {
              "system": "http://terminology.hl7.org/CodeSystem/v3-RouteOfAdministration",
              "code": "IM",
              "display": "Injection, intramuscular"
            }
          ]
        },
        "doseQuantity": {
          "value": 0.5,
          "unit": "mL",
          "system": "http://unitsofmeasure.org",
          "code": "mL"
        },
        "protocolApplied": [
          {
            "doseNumberPositiveInt": 1,
            "seriesDosesPositiveInt": 1
          }
        ]
      },
      "request": {
        "method": "PUT",
        "url": "Immunization/TW00172-flu-1"
      }
    },
    {
      "resource": {
        "resourceType": "Patient",
        "id": "TW00142",
        "identifier": [
          {
            "system": "urn:oid:2.16.886.101.20003.20001",
            "value": "TW00142"
          }
        ],
        "name": [
          {
            "text": "曾世豪",
            "family": "曾",
            "given": [
              "世豪"
            ]
          }
        ],
        "gender": "male",
        "birthDate": "1975-08-11",
        "address": [
          {
            "city": "台北市",
            "country": "TW"
          }
        ]
      },
      "request": {
        "method": "PUT",
        "url": "Patient/TW00142"
      }
    },
    {
      "resource": {
        "resourceType": "Immunization",
        "id": "TW00142-flu-1",
        "status": "completed",
        "vaccineCode": {
          "coding": [
            {
              "system": "http://hl7.org/fhir/sid/cvx",
              "code": "185",
              "display": "Influenza, seasonal, injectable, quadrivalent"
            }
          ],
          "text": "Influenza vaccine"
        },
        "patient": {
          "reference": "Patient/TW00142"
        },
        "occurrenceDateTime": "2024-12-21",
        "primarySource": true,
        "lotNumber": "LOT400045",
        "expirationDate": "2026-12-31",
        "site": {
          "coding": [
            {
              "system": "http://terminology.hl7.org/CodeSystem/v3-ActSite",
              "code": "LA",
              "display": "left arm"
            }
          ]
        },
        "route": {
          "coding": [
            {
              "system": "http://terminology.hl7.org/CodeSystem/v3-RouteOfAdministration",
              "code": "IM",
              "display": "Injection, intramuscular"
            }
          ]
        },
        "doseQuantity": {
          "value": 0.5,
          "unit": "mL",
          "system": "http://unitsofmeasure.org",
          "code": "mL"
        },
        "protocolApplied": [
          {
            "doseNumberPositiveInt": 1,
            "seriesDosesPositiveInt": 1
          }
        ]
      },
      "request": {
        "method": "PUT",
        "url": "Immunization/TW00142-flu-1"
      }
    },
    {
      "resource": {
        "resourceType": "Patient",
        "id": "TW00104",
        "identifier": [
          {
            "system": "urn:oid:2.16.886.101.20003.20001",
            "value": "TW00104"
          }
        ],
        "name": [
          {
            "text": "劉冠宇",
            "family": "劉",
            "given": [
              "冠宇"
            ]
          }
        ],
        "gender": "male",
        "birthDate": "1996-11-08",
        "address": [
          {
            "city": "桃園市",
            "country": "TW"
          }
        ]
      },
      "request": {
        "method": "PUT",
        "url": "Patient/TW00104"
      }
    },
    {
      "resource": {
        "resourceType": "Immunization",
        "id": "TW00104-flu-1",
        "status": "completed",
        "vaccineCode": {
          "coding": [
            {
              "system": "http://hl7.org/fhir/sid/cvx",
              "code": "185",
              "display": "Influenza, seasonal, injectable, quadrivalent"
            }
          ],
          "text": "Influenza vaccine"
        },
        "patient": {
          "reference": "Patient/TW00104"
        },
        "occurrenceDateTime": "2024-10-01",
        "primarySource": true,
        "lotNumber": "LOT669258",
        "expirationDate": "2026-12-31",
        "site": {
          "coding": [
            {
              "system": "http://terminology.hl7.org/CodeSystem/v3-ActSite",
              "code": "LA",
              "display": "left arm"
            }
          ]
        },
        "route": {
          "coding": [
            {
              "system": "http://terminology.hl7.org/CodeSystem/v3-RouteOfAdministration",
              "code": "IM",
              "display": "Injection, intramuscular"
            }
          ]
        },
        "doseQuantity": {
          "value": 0.5,
          "unit": "mL",
          "system": "http://unitsofmeasure.org",
          "code": "mL"
        },
        "protocolApplied": [
          {
            "doseNumberPositiveInt": 1,
            "seriesDosesPositiveInt": 1
          }
        ]
      },
      "request": {
        "method": "PUT",
        "url": "Immunization/TW00104-flu-1"
      }
    },
    {
      "resource": {
        "resourceType": "Patient",
        "id": "TW00182",
        "identifier": [
          {
            "system": "urn:oid:2.16.886.101.20003.20001",
            "value": "TW00182"
          }
        ],
        "name": [
          {
            "text": "王雅筑",
            "family": "王",
            "given": [
              "雅筑"
            ]
          }
        ],
        "gender": "female",
        "birthDate": "1967-09-21",
        "address": [
          {
            "city": "新北市",
            "country": "TW"
          }
        ]
      },
      "request": {
        "method": "PUT",
        "url": "Patient/TW00182"
      }
    },
    {
      "resource": {
        "resourceType": "Immunization",
        "id": "TW00182-flu-1",
        "status": "completed",
        "vaccineCode": {
          "coding": [
            {
              "system": "http://hl7.org/fhir/sid/cvx",
              "code": "185",
              "display": "Influenza, seasonal, injectable, quadrivalent"
            }
          ],
          "text": "Influenza vaccine"
        },
        "patient": {
          "reference": "Patient/TW00182"
        },
        "occurrenceDateTime": "2024-10-18",
        "primarySource": true,
        "lotNumber": "LOT476947",
        "expirationDate": "2026-12-31",
        "site": {
          "coding": [
            {
              "system": "http://terminology.hl7.org/CodeSystem/v3-ActSite",
              "code": "LA",
              "display": "left arm"
            }
          ]
        },
        "route": {
          "coding": [
            {
              "system": "http://terminology.hl7.org/CodeSystem/v3-RouteOfAdministration",
              "code": "IM",
              "display": "Injection, intramuscular"
            }
          ]
        },
        "doseQuantity": {
          "value": 0.5,
          "unit": "mL",
          "system": "http://unitsofmeasure.org",
          "code": "mL"
        },
        "protocolApplied": [
          {
            "doseNumberPositiveInt": 1,
            "seriesDosesPositiveInt": 1
          }
        ]
      },
      "request": {
        "method": "PUT",
        "url": "Immunization/TW00182-flu-1"
      }
    },
    {
      "resource": {
        "resourceType": "Patient",
        "id": "TW00155",
        "identifier": [
          {
            "system": "urn:oid:2.16.886.101.20003.20001",
            "value": "TW00155"
          }
        ],
        "name": [
          {
            "text": "吳美玲",
            "family": "吳",
            "given": [
              "美玲"
            ]
          }
        ],
        "gender": "female",
        "birthDate": "1984-08-09",
        "address": [
          {
            "city": "高雄市",
            "country": "TW"
          }
        ]
      },
      "request": {
        "method": "PUT",
        "url": "Patient/TW00155"
      }
    },
    {
      "resource": {
        "resourceType": "Immunization",
        "id": "TW00155-flu-1",
        "status": "completed",
        "vaccineCode": {
          "coding": [
            {
              "system": "http://hl7.org/fhir/sid/cvx",
              "code": "185",
              "display": "Influenza, seasonal, injectable, quadrivalent"
            }
          ],
          "text": "Influenza vaccine"
        },
        "patient": {
          "reference": "Patient/TW00155"
        },
        "occurrenceDateTime": "2024-12-21",
        "primarySource": true,
        "lotNumber": "LOT354051",
        "expirationDate": "2026-12-31",
        "site": {
          "coding": [
            {
              "system": "http://terminology.hl7.org/CodeSystem/v3-ActSite",
              "code": "LA",
              "display": "left arm"
            }
          ]
        },
        "route": {
          "coding": [
            {
              "system": "http://terminology.hl7.org/CodeSystem/v3-RouteOfAdministration",
              "code": "IM",
              "display": "Injection, intramuscular"
            }
          ]
        },
        "doseQuantity": {
          "value": 0.5,
          "unit": "mL",
          "system": "http://unitsofmeasure.org",
          "code": "mL"
        },
        "protocolApplied": [
          {
            "doseNumberPositiveInt": 1,
            "seriesDosesPositiveInt": 1
          }
        ]
      },
      "request": {
        "method": "PUT",
        "url": "Immunization/TW00155-flu-1"
      }
    },
    {
      "resource": {
        "resourceType": "Patient",
        "id": "TW00159",
        "identifier": [
          {
            "system": "urn:oid:2.16.886.101.20003.20001",
            "value": "TW00159"
          }
        ],
        "name": [
          {
            "text": "王怡萱",
            "family": "王",
            "given": [
              "怡萱"
            ]
          }
        ],
        "gender": "female",
        "birthDate": "2002-07-15",
        "address": [
          {
            "city": "新北市",
            "country": "TW"
          }
        ]
      },
      "request": {
        "method": "PUT",
        "url": "Patient/TW00159"
      }
    },
    {
      "resource": {
        "resourceType": "Immunization",
        "id": "TW00159-flu-1",
        "status": "completed",
        "vaccineCode": {
          "coding": [
            {
              "system": "http://hl7.org/fhir/sid/cvx",
              "code": "141",
              "display": "Influenza, seasonal, injectable"
            }
          ],
          "text": "Influenza vaccine"
        },
        "patient": {
          "reference": "Patient/TW00159"
        },
        "occurrenceDateTime": "2024-12-22",
        "primarySource": true,
        "lotNumber": "LOT986035",
        "expirationDate": "2026-12-31",
        "site": {
          "coding": [
            {
              "system": "http://terminology.hl7.org/CodeSystem/v3-ActSite",
              "code": "LA",
              "display": "left arm"
            }
          ]
        },
        "route": {
          "coding": [
            {
              "system": "http://terminology.hl7.org/CodeSystem/v3-RouteOfAdministration",
              "code": "IM",
              "display": "Injection, intramuscular"
            }
          ]
        },
        "doseQuantity": {
          "value": 0.5,
          "unit": "mL",
          "system": "http://unitsofmeasure.org",
          "code": "mL"
        },
        "protocolApplied": [
          {
            "doseNumberPositiveInt": 1,
            "seriesDosesPositiveInt": 1
          }
        ]
      },
      "request": {
        "method": "PUT",
        "url": "Immunization/TW00159-flu-1"
      }
    },
    {
      "resource": {
        "resourceType": "Patient",
        "id": "TW00171",
        "identifier": [
          {
            "system": "urn:oid:2.16.886.101.20003.20001",
            "value": "TW00171"
          }
        ],
        "name": [
          {
            "text": "吳柏翰",
            "family": "吳",
            "given": [
              "柏翰"
            ]
          }
        ],
        "gender": "male",
        "birthDate": "1988-03-06",
        "address": [
          {
            "city": "苗栗縣",
            "country": "TW"
          }
        ]
      },
      "request": {
        "method": "PUT",
        "url": "Patient/TW00171"
      }
    },
    {
      "resource": {
        "resourceType": "Immunization",
        "id": "TW00171-flu-1",
        "status": "completed",
        "vaccineCode": {
          "coding": [
            {
              "system": "http://hl7.org/fhir/sid/cvx",
              "code": "185",
              "display": "Influenza, seasonal, injectable, quadrivalent"
            }
          ],
          "text": "Influenza vaccine"
        },
        "patient": {
          "reference": "Patient/TW00171"
        },
        "occurrenceDateTime": "2024-11-15",
        "primarySource": true,
        "lotNumber": "LOT905959",
        "expirationDate": "2026-12-31",
        "site": {
          "coding": [
            {
              "system": "http://terminology.hl7.org/CodeSystem/v3-ActSite",
              "code": "LA",
              "display": "left arm"
            }
          ]
        },
        "route": {
          "coding": [
            {
              "system": "http://terminology.hl7.org/CodeSystem/v3-RouteOfAdministration",
              "code": "IM",
              "display": "Injection, intramuscular"
            }
          ]
        },
        "doseQuantity": {
          "value": 0.5,
          "unit": "mL",
          "system": "http://unitsofmeasure.org",
          "code": "mL"
        },
        "protocolApplied": [
          {
            "doseNumberPositiveInt": 1,
            "seriesDosesPositiveInt": 1
          }
        ]
      },
      "request": {
        "method": "PUT",
        "url": "Immunization/TW00171-flu-1"
      }
    },
    {
      "resource": {
        "resourceType": "Patient",
        "id": "TW00160",
        "identifier": [
          {
            "system": "urn:oid:2.16.886.101.20003.20001",
            "value": "TW00160"
          }
        ],
        "name": [
          {
            "text": "廖怡靜",
            "family": "廖",
            "given": [
              "怡靜"
            ]
          }
        ],
        "gender": "female",
        "birthDate": "1985-05-03",
        "address": [
          {
            "city": "花蓮縣",
            "country": "TW"
          }
        ]
      },
      "request": {
        "method": "PUT",
        "url": "Patient/TW00160"
      }
    },
    {
      "resource": {
        "resourceType": "Immunization",
        "id": "TW00160-flu-1",
        "status": "completed",
        "vaccineCode": {
          "coding": [
            {
              "system": "http://hl7.org/fhir/sid/cvx",
              "code": "141",
              "display": "Influenza, seasonal, injectable"
            }
          ],
          "text": "Influenza vaccine"
        },
        "patient": {
          "reference": "Patient/TW00160"
        },
        "occurrenceDateTime": "2024-12-19",
        "primarySource": true,
        "lotNumber": "LOT382775",
        "expirationDate": "2026-12-31",
        "site": {
          "coding": [
            {
              "system": "http://terminology.hl7.org/CodeSystem/v3-ActSite",
              "code": "LA",
              "display": "left arm"
            }
          ]
        },
        "route": {
          "coding": [
            {
              "system": "http://terminology.hl7.org/CodeSystem/v3-RouteOfAdministration",
              "code": "IM",
              "display": "Injection, intramuscular"
            }
          ]
        },
        "doseQuantity": {
          "value": 0.5,
          "unit": "mL",
          "system": "http://unitsofmeasure.org",
          "code": "mL"
        },
        "protocolApplied": [
          {
            "doseNumberPositiveInt": 1,
            "seriesDosesPositiveInt": 1
          }
        ]
      },
      "request": {
        "method": "PUT",
        "url": "Immunization/TW00160-flu-1"
      }
    },
    {
      "resource": {
        "resourceType": "Patient",
        "id": "TW00151",
        "identifier": [
          {
            "system": "urn:oid:2.16.886.101.20003.20001",
            "value": "TW00151"
          }
        ],
        "name": [
          {
            "text": "楊俊廷",
            "family": "楊",
            "given": [
              "俊廷"
            ]
          }
        ],
        "gender": "male",
        "birthDate": "1975-05-12",
        "address": [
          {
            "city": "台南市",
            "country": "TW"
          }
        ]
      },
      "request": {
        "method": "PUT",
        "url": "Patient/TW00151"
      }
    },
    {
      "resource": {
        "resourceType": "Immunization",
        "id": "TW00151-flu-1",
        "status": "completed",
        "vaccineCode": {
          "coding": [
            {
              "system": "http://hl7.org/fhir/sid/cvx",
              "code": "141",
              "display": "Influenza, seasonal, injectable"
            }
          ],
          "text": "Influenza vaccine"
        },
        "patient": {
          "reference": "Patient/TW00151"
        },
        "occurrenceDateTime": "2025-01-22",
        "primarySource": true,
        "lotNumber": "LOT749464",
        "expirationDate": "2026-12-31",
        "site": {
          "coding": [
            {
              "system": "http://terminology.hl7.org/CodeSystem/v3-ActSite",
              "code": "LA",
              "display": "left arm"
            }
          ]
        },
        "route": {
          "coding": [
            {
              "system": "http://terminology.hl7.org/CodeSystem/v3-RouteOfAdministration",
              "code": "IM",
              "display": "Injection, intramuscular"
            }
          ]
        },
        "doseQuantity": {
          "value": 0.5,
          "unit": "mL",
          "system": "http://unitsofmeasure.org",
          "code": "mL"
        },
        "protocolApplied": [
          {
            "doseNumberPositiveInt": 1,
            "seriesDosesPositiveInt": 1
          }
        ]
      },
      "request": {
        "method": "PUT",
        "url": "Immunization/TW00151-flu-1"
      }
    },
    {
      "resource": {
        "resourceType": "Patient",
        "id": "TW00123",
        "identifier": [
          {
            "system": "urn:oid:2.16.886.101.20003.20001",
            "value": "TW00123"
          }
        ],
        "name": [
          {
            "text": "陳麗華",
            "family": "陳",
            "given": [
              "麗華"
            ]
          }
        ],
        "gender": "female",
        "birthDate": "1981-05-17",
        "address": [
          {
            "city": "新北市",
            "country": "TW"
          }
        ]
      },
      "request": {
        "method": "PUT",
        "url": "Patient/TW00123"
      }
    },
    {
      "resource": {
        "resourceType": "Immunization",
        "id": "TW00123-flu-1",
        "status": "completed",
        "vaccineCode": {
          "coding": [
            {
              "system": "http://hl7.org/fhir/sid/cvx",
              "code": "185",
              "display": "Influenza, seasonal, injectable, quadrivalent"
            }
          ],
          "text": "Influenza vaccine"
        },
        "patient": {
          "reference": "Patient/TW00123"
        },
        "occurrenceDateTime": "2024-11-12",
        "primarySource": true,
        "lotNumber": "LOT903613",
        "expirationDate": "2026-12-31",
        "site": {
          "coding": [
            {
              "system": "http://terminology.hl7.org/CodeSystem/v3-ActSite",
              "code": "LA",
              "display": "left arm"
            }
          ]
        },
        "route": {
          "coding": [
            {
              "system": "http://terminology.hl7.org/CodeSystem/v3-RouteOfAdministration",
              "code": "IM",
              "display": "Injection, intramuscular"
            }
          ]
        },
        "doseQuantity": {
          "value": 0.5,
          "unit": "mL",
          "system": "http://unitsofmeasure.org",
          "code": "mL"
        },
        "protocolApplied": [
          {
            "doseNumberPositiveInt": 1,
            "seriesDosesPositiveInt": 1
          }
        ]
      },
      "request": {
        "method": "PUT",
        "url": "Immunization/TW00123-flu-1"
      }
    },
    {
      "resource": {
        "resourceType": "Patient",
        "id": "TW00144",
        "identifier": [
          {
            "system": "urn:oid:2.16.886.101.20003.20001",
            "value": "TW00144"
          }
        ],
        "name": [
          {
            "text": "楊秀英",
            "family": "楊",
            "given": [
              "秀英"
            ]
          }
        ],
        "gender": "female",
        "birthDate": "1968-01-10",
        "address": [
          {
            "city": "新竹縣",
            "country": "TW"
          }
        ]
      },
      "request": {
        "method": "PUT",
        "url": "Patient/TW00144"
      }
    },
    {
      "resource": {
        "resourceType": "Immunization",
        "id": "TW00144-flu-1",
        "status": "completed",
        "vaccineCode": {
          "coding": [
            {
              "system": "http://hl7.org/fhir/sid/cvx",
              "code": "185",
              "display": "Influenza, seasonal, injectable, quadrivalent"
            }
          ],
          "text": "Influenza vaccine"
        },
        "patient": {
          "reference": "Patient/TW00144"
        },
        "occurrenceDateTime": "2024-12-06",
        "primarySource": true,
        "lotNumber": "LOT907607",
        "expirationDate": "2026-12-31",
        "site": {
          "coding": [
            {
              "system": "http://terminology.hl7.org/CodeSystem/v3-ActSite",
              "code": "LA",
              "display": "left arm"
            }
          ]
        },
        "route": {
          "coding": [
            {
              "system": "http://terminology.hl7.org/CodeSystem/v3-RouteOfAdministration",
              "code": "IM",
              "display": "Injection, intramuscular"
            }
          ]
        },
        "doseQuantity": {
          "value": 0.5,
          "unit": "mL",
          "system": "http://unitsofmeasure.org",
          "code": "mL"
        },
        "protocolApplied": [
          {
            "doseNumberPositiveInt": 1,
            "seriesDosesPositiveInt": 1
          }
        ]
      },
      "request": {
        "method": "PUT",
        "url": "Immunization/TW00144-flu-1"
      }
    },
    {
      "resource": {
        "resourceType": "Patient",
        "id": "TW00150",
        "identifier": [
          {
            "system": "urn:oid:2.16.886.101.20003.20001",
            "value": "TW00150"
          }
        ],
        "name": [
          {
            "text": "邱冠宇",
            "family": "邱",
            "given": [
              "冠宇"
            ]
          }
        ],
        "gender": "male",
        "birthDate": "1986-09-05",
        "address": [
          {
            "city": "新竹市",
            "country": "TW"
          }
        ]
      },
      "request": {
        "method": "PUT",
        "url": "Patient/TW00150"
      }
    },
    {
      "resource": {
        "resourceType": "Immunization",
        "id": "TW00150-flu-1",
        "status": "completed",
        "vaccineCode": {
          "coding": [
            {
              "system": "http://hl7.org/fhir/sid/cvx",
              "code": "141",
              "display": "Influenza, seasonal, injectable"
            }
          ],
          "text": "Influenza vaccine"
        },
        "patient": {
          "reference": "Patient/TW00150"
        },
        "occurrenceDateTime": "2024-10-24",
        "primarySource": true,
        "lotNumber": "LOT807775",
        "expirationDate": "2026-12-31",
        "site": {
          "coding": [
            {
              "system": "http://terminology.hl7.org/CodeSystem/v3-ActSite",
              "code": "LA",
              "display": "left arm"
            }
          ]
        },
        "route": {
          "coding": [
            {
              "system": "http://terminology.hl7.org/CodeSystem/v3-RouteOfAdministration",
              "code": "IM",
              "display": "Injection, intramuscular"
            }
          ]
        },
        "doseQuantity": {
          "value": 0.5,
          "unit": "mL",
          "system": "http://unitsofmeasure.org",
          "code": "mL"
        },
        "protocolApplied": [
          {
            "doseNumberPositiveInt": 1,
            "seriesDosesPositiveInt": 1
          }
        ]
      },
      "request": {
        "method": "PUT",
        "url": "Immunization/TW00150-flu-1"
      }
    },
    {
      "resource": {
        "resourceType": "Patient",
        "id": "TW00105",
        "identifier": [
          {
            "system": "urn:oid:2.16.886.101.20003.20001",
            "value": "TW00105"
          }
        ],
        "name": [
          {
            "text": "廖淑玲",
            "family": "廖",
            "given": [
              "淑玲"
            ]
          }
        ],
        "gender": "female",
        "birthDate": "1970-07-11",
        "address": [
          {
            "city": "彰化縣",
            "country": "TW"
          }
        ]
      },
      "request": {
        "method": "PUT",
        "url": "Patient/TW00105"
      }
    },
    {
      "resource": {
        "resourceType": "Immunization",
        "id": "TW00105-flu-1",
        "status": "completed",
        "vaccineCode": {
          "coding": [
            {
              "system": "http://hl7.org/fhir/sid/cvx",
              "code": "141",
              "display": "Influenza, seasonal, injectable"
            }
          ],
          "text": "Influenza vaccine"
        },
        "patient": {
          "reference": "Patient/TW00105"
        },
        "occurrenceDateTime": "2025-01-05",
        "primarySource": true,
        "lotNumber": "LOT121136",
        "expirationDate": "2026-12-31",
        "site": {
          "coding": [
            {
              "system": "http://terminology.hl7.org/CodeSystem/v3-ActSite",
              "code": "LA",
              "display": "left arm"
            }
          ]
        },
        "route": {
          "coding": [
            {
              "system": "http://terminology.hl7.org/CodeSystem/v3-RouteOfAdministration",
              "code": "IM",
              "display": "Injection, intramuscular"
            }
          ]
        },
        "doseQuantity": {
          "value": 0.5,
          "unit": "mL",
          "system": "http://unitsofmeasure.org",
          "code": "mL"
        },
        "protocolApplied": [
          {
            "doseNumberPositiveInt": 1,
            "seriesDosesPositiveInt": 1
          }
        ]
      },
      "request": {
        "method": "PUT",
        "url": "Immunization/TW00105-flu-1"
      }
    },
    {
      "resource": {
        "resourceType": "Patient",
        "id": "TW00117",
        "identifier": [
          {
            "system": "urn:oid:2.16.886.101.20003.20001",
            "value": "TW00117"
          }
        ],
        "name": [
          {
            "text": "劉俊宇",
            "family": "劉",
            "given": [
              "俊宇"
            ]
          }
        ],
        "gender": "male",
        "birthDate": "1946-06-09",
        "address": [
          {
            "city": "台北市",
            "country": "TW"
          }
        ]
      },
      "request": {
        "method": "PUT",
        "url": "Patient/TW00117"
      }
    },
    {
      "resource": {
        "resourceType": "Immunization",
        "id": "TW00117-flu-1",
        "status": "completed",
        "vaccineCode": {
          "coding": [
            {
              "system": "http://hl7.org/fhir/sid/cvx",
              "code": "141",
              "display": "Influenza, seasonal, injectable"
            }
          ],
          "text": "Influenza vaccine"
        },
        "patient": {
          "reference": "Patient/TW00117"
        },
        "occurrenceDateTime": "2024-12-26",
        "primarySource": true,
        "lotNumber": "LOT344739",
        "expirationDate": "2026-12-31",
        "site": {
          "coding": [
            {
              "system": "http://terminology.hl7.org/CodeSystem/v3-ActSite",
              "code": "LA",
              "display": "left arm"
            }
          ]
        },
        "route": {
          "coding": [
            {
              "system": "http://terminology.hl7.org/CodeSystem/v3-RouteOfAdministration",
              "code": "IM",
              "display": "Injection, intramuscular"
            }
          ]
        },
        "doseQuantity": {
          "value": 0.5,
          "unit": "mL",
          "system": "http://unitsofmeasure.org",
          "code": "mL"
        },
        "protocolApplied": [
          {
            "doseNumberPositiveInt": 1,
            "seriesDosesPositiveInt": 1
          }
        ]
      },
      "request": {
        "method": "PUT",
        "url": "Immunization/TW00117-flu-1"
      }
    },
    {
      "resource": {
        "resourceType": "Patient",
        "id": "TW00186",
        "identifier": [
          {
            "system": "urn:oid:2.16.886.101.20003.20001",
            "value": "TW00186"
          }
        ],
        "name": [
          {
            "text": "洪宜蓁",
            "family": "洪",
            "given": [
              "宜蓁"
            ]
          }
        ],
        "gender": "female",
        "birthDate": "1965-08-14",
        "address": [
          {
            "city": "新竹縣",
            "country": "TW"
          }
        ]
      },
      "request": {
        "method": "PUT",
        "url": "Patient/TW00186"
      }
    },
    {
      "resource": {
        "resourceType": "Immunization",
        "id": "TW00186-flu-1",
        "status": "completed",
        "vaccineCode": {
          "coding": [
            {
              "system": "http://hl7.org/fhir/sid/cvx",
              "code": "141",
              "display": "Influenza, seasonal, injectable"
            }
          ],
          "text": "Influenza vaccine"
        },
        "patient": {
          "reference": "Patient/TW00186"
        },
        "occurrenceDateTime": "2024-10-20",
        "primarySource": true,
        "lotNumber": "LOT767037",
        "expirationDate": "2026-12-31",
        "site": {
          "coding": [
            {
              "system": "http://terminology.hl7.org/CodeSystem/v3-ActSite",
              "code": "LA",
              "display": "left arm"
            }
          ]
        },
        "route": {
          "coding": [
            {
              "system": "http://terminology.hl7.org/CodeSystem/v3-RouteOfAdministration",
              "code": "IM",
              "display": "Injection, intramuscular"
            }
          ]
        },
        "doseQuantity": {
          "value": 0.5,
          "unit": "mL",
          "system": "http://unitsofmeasure.org",
          "code": "mL"
        },
        "protocolApplied": [
          {
            "doseNumberPositiveInt": 1,
            "seriesDosesPositiveInt": 1
          }
        ]
      },
      "request": {
        "method": "PUT",
        "url": "Immunization/TW00186-flu-1"
      }
    },
    {
      "resource": {
        "resourceType": "Patient",
        "id": "TW00185",
        "identifier": [
          {
            "system": "urn:oid:2.16.886.101.20003.20001",
            "value": "TW00185"
          }
        ],
        "name": [
          {
            "text": "邱雅芳",
            "family": "邱",
            "given": [
              "雅芳"
            ]
          }
        ],
        "gender": "female",
        "birthDate": "2000-11-14",
        "address": [
          {
            "city": "彰化縣",
            "country": "TW"
          }
        ]
      },
      "request": {
        "method": "PUT",
        "url": "Patient/TW00185"
      }
    },
    {
      "resource": {
        "resourceType": "Immunization",
        "id": "TW00185-flu-1",
        "status": "completed",
        "vaccineCode": {
          "coding": [
            {
              "system": "http://hl7.org/fhir/sid/cvx",
              "code": "185",
              "display": "Influenza, seasonal, injectable, quadrivalent"
            }
          ],
          "text": "Influenza vaccine"
        },
        "patient": {
          "reference": "Patient/TW00185"
        },
        "occurrenceDateTime": "2024-11-29",
        "primarySource": true,
        "lotNumber": "LOT187152",
        "expirationDate": "2026-12-31",
        "site": {
          "coding": [
            {
              "system": "http://terminology.hl7.org/CodeSystem/v3-ActSite",
              "code": "LA",
              "display": "left arm"
            }
          ]
        },
        "route": {
          "coding": [
            {
              "system": "http://terminology.hl7.org/CodeSystem/v3-RouteOfAdministration",
              "code": "IM",
              "display": "Injection, intramuscular"
            }
          ]
        },
        "doseQuantity": {
          "value": 0.5,
          "unit": "mL",
          "system": "http://unitsofmeasure.org",
          "code": "mL"
        },
        "protocolApplied": [
          {
            "doseNumberPositiveInt": 1,
            "seriesDosesPositiveInt": 1
          }
        ]
      },
      "request": {
        "method": "PUT",
        "url": "Immunization/TW00185-flu-1"
      }
    },
    {
      "resource": {
        "resourceType": "Patient",
        "id": "TW00118",
        "identifier": [
          {
            "system": "urn:oid:2.16.886.101.20003.20001",
            "value": "TW00118"
          }
        ],
        "name": [
          {
            "text": "洪雅筑",
            "family": "洪",
            "given": [
              "雅筑"
            ]
          }
        ],
        "gender": "female",
        "birthDate": "1949-07-09",
        "address": [
          {
            "city": "宜蘭縣",
            "country": "TW"
          }
        ]
      },
      "request": {
        "method": "PUT",
        "url": "Patient/TW00118"
      }
    },
    {
      "resource": {
        "resourceType": "Immunization",
        "id": "TW00118-flu-1",
        "status": "completed",
        "vaccineCode": {
          "coding": [
            {
              "system": "http://hl7.org/fhir/sid/cvx",
              "code": "141",
              "display": "Influenza, seasonal, injectable"
            }
          ],
          "text": "Influenza vaccine"
        },
        "patient": {
          "reference": "Patient/TW00118"
        },
        "occurrenceDateTime": "2024-12-10",
        "primarySource": true,
        "lotNumber": "LOT599360",
        "expirationDate": "2026-12-31",
        "site": {
          "coding": [
            {
              "system": "http://terminology.hl7.org/CodeSystem/v3-ActSite",
              "code": "LA",
              "display": "left arm"
            }
          ]
        },
        "route": {
          "coding": [
            {
              "system": "http://terminology.hl7.org/CodeSystem/v3-RouteOfAdministration",
              "code": "IM",
              "display": "Injection, intramuscular"
            }
          ]
        },
        "doseQuantity": {
          "value": 0.5,
          "unit": "mL",
          "system": "http://unitsofmeasure.org",
          "code": "mL"
        },
        "protocolApplied": [
          {
            "doseNumberPositiveInt": 1,
            "seriesDosesPositiveInt": 1
          }
        ]
      },
      "request": {
        "method": "PUT",
        "url": "Immunization/TW00118-flu-1"
      }
    },
    {
      "resource": {
        "resourceType": "Patient",
        "id": "TW00200",
        "identifier": [
          {
            "system": "urn:oid:2.16.886.101.20003.20001",
            "value": "TW00200"
          }
        ],
        "name": [
          {
            "text": "李宜蓁",
            "family": "李",
            "given": [
              "宜蓁"
            ]
          }
        ],
        "gender": "female",
        "birthDate": "1954-09-13",
        "address": [
          {
            "city": "彰化縣",
            "country": "TW"
          }
        ]
      },
      "request": {
        "method": "PUT",
        "url": "Patient/TW00200"
      }
    },
    {
      "resource": {
        "resourceType": "Immunization",
        "id": "TW00200-flu-1",
        "status": "completed",
        "vaccineCode": {
          "coding": [
            {
              "system": "http://hl7.org/fhir/sid/cvx",
              "code": "141",
              "display": "Influenza, seasonal, injectable"
            }
          ],
          "text": "Influenza vaccine"
        },
        "patient": {
          "reference": "Patient/TW00200"
        },
        "occurrenceDateTime": "2025-01-02",
        "primarySource": true,
        "lotNumber": "LOT158442",
        "expirationDate": "2026-12-31",
        "site": {
          "coding": [
            {
              "system": "http://terminology.hl7.org/CodeSystem/v3-ActSite",
              "code": "LA",
              "display": "left arm"
            }
          ]
        },
        "route": {
          "coding": [
            {
              "system": "http://terminology.hl7.org/CodeSystem/v3-RouteOfAdministration",
              "code": "IM",
              "display": "Injection, intramuscular"
            }
          ]
        },
        "doseQuantity": {
          "value": 0.5,
          "unit": "mL",
          "system": "http://unitsofmeasure.org",
          "code": "mL"
        },
        "protocolApplied": [
          {
            "doseNumberPositiveInt": 1,
            "seriesDosesPositiveInt": 1
          }
        ]
      },
      "request": {
        "method": "PUT",
        "url": "Immunization/TW00200-flu-1"
      }
    },
    {
      "resource": {
        "resourceType": "Patient",
        "id": "TW00165",
        "identifier": [
          {
            "system": "urn:oid:2.16.886.101.20003.20001",
            "value": "TW00165"
          }
        ],
        "name": [
          {
            "text": "蔡雅婷",
            "family": "蔡",
            "given": [
              "雅婷"
            ]
          }
        ],
        "gender": "female",
        "birthDate": "1968-03-11",
        "address": [
          {
            "city": "新竹縣",
            "country": "TW"
          }
        ]
      },
      "request": {
        "method": "PUT",
        "url": "Patient/TW00165"
      }
    },
    {
      "resource": {
        "resourceType": "Immunization",
        "id": "TW00165-flu-1",
        "status": "completed",
        "vaccineCode": {
          "coding": [
            {
              "system": "http://hl7.org/fhir/sid/cvx",
              "code": "141",
              "display": "Influenza, seasonal, injectable"
            }
          ],
          "text": "Influenza vaccine"
        },
        "patient": {
          "reference": "Patient/TW00165"
        },
        "occurrenceDateTime": "2025-01-18",
        "primarySource": true,
        "lotNumber": "LOT980483",
        "expirationDate": "2026-12-31",
        "site": {
          "coding": [
            {
              "system": "http://terminology.hl7.org/CodeSystem/v3-ActSite",
              "code": "LA",
              "display": "left arm"
            }
          ]
        },
        "route": {
          "coding": [
            {
              "system": "http://terminology.hl7.org/CodeSystem/v3-RouteOfAdministration",
              "code": "IM",
              "display": "Injection, intramuscular"
            }
          ]
        },
        "doseQuantity": {
          "value": 0.5,
          "unit": "mL",
          "system": "http://unitsofmeasure.org",
          "code": "mL"
        },
        "protocolApplied": [
          {
            "doseNumberPositiveInt": 1,
            "seriesDosesPositiveInt": 1
          }
        ]
      },
      "request": {
        "method": "PUT",
        "url": "Immunization/TW00165-flu-1"
      }
    },
    {
      "resource": {
        "resourceType": "Patient",
        "id": "TW00129",
        "identifier": [
          {
            "system": "urn:oid:2.16.886.101.20003.20001",
            "value": "TW00129"
          }
        ],
        "name": [
          {
            "text": "陳麗華",
            "family": "陳",
            "given": [
              "麗華"
            ]
          }
        ],
        "gender": "female",
        "birthDate": "1963-09-10",
        "address": [
          {
            "city": "新北市",
            "country": "TW"
          }
        ]
      },
      "request": {
        "method": "PUT",
        "url": "Patient/TW00129"
      }
    },
    {
      "resource": {
        "resourceType": "Immunization",
        "id": "TW00129-flu-1",
        "status": "completed",
        "vaccineCode": {
          "coding": [
            {
              "system": "http://hl7.org/fhir/sid/cvx",
              "code": "185",
              "display": "Influenza, seasonal, injectable, quadrivalent"
            }
          ],
          "text": "Influenza vaccine"
        },
        "patient": {
          "reference": "Patient/TW00129"
        },
        "occurrenceDateTime": "2024-12-22",
        "primarySource": true,
        "lotNumber": "LOT884996",
        "expirationDate": "2026-12-31",
        "site": {
          "coding": [
            {
              "system": "http://terminology.hl7.org/CodeSystem/v3-ActSite",
              "code": "LA",
              "display": "left arm"
            }
          ]
        },
        "route": {
          "coding": [
            {
              "system": "http://terminology.hl7.org/CodeSystem/v3-RouteOfAdministration",
              "code": "IM",
              "display": "Injection, intramuscular"
            }
          ]
        },
        "doseQuantity": {
          "value": 0.5,
          "unit": "mL",
          "system": "http://unitsofmeasure.org",
          "code": "mL"
        },
        "protocolApplied": [
          {
            "doseNumberPositiveInt": 1,
            "seriesDosesPositiveInt": 1
          }
        ]
      },
      "request": {
        "method": "PUT",
        "url": "Immunization/TW00129-flu-1"
      }
    },
    {
      "resource": {
        "resourceType": "Patient",
        "id": "TW00133",
        "identifier": [
          {
            "system": "urn:oid:2.16.886.101.20003.20001",
            "value": "TW00133"
          }
        ],
        "name": [
          {
            "text": "許佳穎",
            "family": "許",
            "given": [
              "佳穎"
            ]
          }
        ],
        "gender": "female",
        "birthDate": "1941-06-06",
        "address": [
          {
            "city": "金門縣",
            "country": "TW"
          }
        ]
      },
      "request": {
        "method": "PUT",
        "url": "Patient/TW00133"
      }
    },
    {
      "resource": {
        "resourceType": "Immunization",
        "id": "TW00133-flu-1",
        "status": "completed",
        "vaccineCode": {
          "coding": [
            {
              "system": "http://hl7.org/fhir/sid/cvx",
              "code": "185",
              "display": "Influenza, seasonal, injectable, quadrivalent"
            }
          ],
          "text": "Influenza vaccine"
        },
        "patient": {
          "reference": "Patient/TW00133"
        },
        "occurrenceDateTime": "2024-12-09",
        "primarySource": true,
        "lotNumber": "LOT193185",
        "expirationDate": "2026-12-31",
        "site": {
          "coding": [
            {
              "system": "http://terminology.hl7.org/CodeSystem/v3-ActSite",
              "code": "LA",
              "display": "left arm"
            }
          ]
        },
        "route": {
          "coding": [
            {
              "system": "http://terminology.hl7.org/CodeSystem/v3-RouteOfAdministration",
              "code": "IM",
              "display": "Injection, intramuscular"
            }
          ]
        },
        "doseQuantity": {
          "value": 0.5,
          "unit": "mL",
          "system": "http://unitsofmeasure.org",
          "code": "mL"
        },
        "protocolApplied": [
          {
            "doseNumberPositiveInt": 1,
            "seriesDosesPositiveInt": 1
          }
        ]
      },
      "request": {
        "method": "PUT",
        "url": "Immunization/TW00133-flu-1"
      }
    },
    {
      "resource": {
        "resourceType": "Patient",
        "id": "TW00137",
        "identifier": [
          {
            "system": "urn:oid:2.16.886.101.20003.20001",
            "value": "TW00137"
          }
        ],
        "name": [
          {
            "text": "廖怡萱",
            "family": "廖",
            "given": [
              "怡萱"
            ]
          }
        ],
        "gender": "female",
        "birthDate": "1950-01-11",
        "address": [
          {
            "city": "台東縣",
            "country": "TW"
          }
        ]
      },
      "request": {
        "method": "PUT",
        "url": "Patient/TW00137"
      }
    },
    {
      "resource": {
        "resourceType": "Immunization",
        "id": "TW00137-flu-1",
        "status": "completed",
        "vaccineCode": {
          "coding": [
            {
              "system": "http://hl7.org/fhir/sid/cvx",
              "code": "185",
              "display": "Influenza, seasonal, injectable, quadrivalent"
            }
          ],
          "text": "Influenza vaccine"
        },
        "patient": {
          "reference": "Patient/TW00137"
        },
        "occurrenceDateTime": "2025-01-20",
        "primarySource": true,
        "lotNumber": "LOT535585",
        "expirationDate": "2026-12-31",
        "site": {
          "coding": [
            {
              "system": "http://terminology.hl7.org/CodeSystem/v3-ActSite",
              "code": "LA",
              "display": "left arm"
            }
          ]
        },
        "route": {
          "coding": [
            {
              "system": "http://terminology.hl7.org/CodeSystem/v3-RouteOfAdministration",
              "code": "IM",
              "display": "Injection, intramuscular"
            }
          ]
        },
        "doseQuantity": {
          "value": 0.5,
          "unit": "mL",
          "system": "http://unitsofmeasure.org",
          "code": "mL"
        },
        "protocolApplied": [
          {
            "doseNumberPositiveInt": 1,
            "seriesDosesPositiveInt": 1
          }
        ]
      },
      "request": {
        "method": "PUT",
        "url": "Immunization/TW00137-flu-1"
      }
    },
    {
      "resource": {
        "resourceType": "Patient",
        "id": "TW00178",
        "identifier": [
          {
            "system": "urn:oid:2.16.886.101.20003.20001",
            "value": "TW00178"
          }
        ],
        "name": [
          {
            "text": "邱文雄",
            "family": "邱",
            "given": [
              "文雄"
            ]
          }
        ],
        "gender": "male",
        "birthDate": "1986-09-23",
        "address": [
          {
            "city": "彰化縣",
            "country": "TW"
          }
        ]
      },
      "request": {
        "method": "PUT",
        "url": "Patient/TW00178"
      }
    },
    {
      "resource": {
        "resourceType": "Immunization",
        "id": "TW00178-flu-1",
        "status": "completed",
        "vaccineCode": {
          "coding": [
            {
              "system": "http://hl7.org/fhir/sid/cvx",
              "code": "141",
              "display": "Influenza, seasonal, injectable"
            }
          ],
          "text": "Influenza vaccine"
        },
        "patient": {
          "reference": "Patient/TW00178"
        },
        "occurrenceDateTime": "2025-01-07",
        "primarySource": true,
        "lotNumber": "LOT511268",
        "expirationDate": "2026-12-31",
        "site": {
          "coding": [
            {
              "system": "http://terminology.hl7.org/CodeSystem/v3-ActSite",
              "code": "LA",
              "display": "left arm"
            }
          ]
        },
        "route": {
          "coding": [
            {
              "system": "http://terminology.hl7.org/CodeSystem/v3-RouteOfAdministration",
              "code": "IM",
              "display": "Injection, intramuscular"
            }
          ]
        },
        "doseQuantity": {
          "value": 0.5,
          "unit": "mL",
          "system": "http://unitsofmeasure.org",
          "code": "mL"
        },
        "protocolApplied": [
          {
            "doseNumberPositiveInt": 1,
            "seriesDosesPositiveInt": 1
          }
        ]
      },
      "request": {
        "method": "PUT",
        "url": "Immunization/TW00178-flu-1"
      }
    },
    {
      "resource": {
        "resourceType": "Patient",
        "id": "TW00128",
        "identifier": [
          {
            "system": "urn:oid:2.16.886.101.20003.20001",
            "value": "TW00128"
          }
        ],
        "name": [
          {
            "text": "王淑玲",
            "family": "王",
            "given": [
              "淑玲"
            ]
          }
        ],
        "gender": "female",
        "birthDate": "1984-11-05",
        "address": [
          {
            "city": "新竹市",
            "country": "TW"
          }
        ]
      },
      "request": {
        "method": "PUT",
        "url": "Patient/TW00128"
      }
    },
    {
      "resource": {
        "resourceType": "Immunization",
        "id": "TW00128-flu-1",
        "status": "completed",
        "vaccineCode": {
          "coding": [
            {
              "system": "http://hl7.org/fhir/sid/cvx",
              "code": "141",
              "display": "Influenza, seasonal, injectable"
            }
          ],
          "text": "Influenza vaccine"
        },
        "patient": {
          "reference": "Patient/TW00128"
        },
        "occurrenceDateTime": "2025-01-29",
        "primarySource": true,
        "lotNumber": "LOT855580",
        "expirationDate": "2026-12-31",
        "site": {
          "coding": [
            {
              "system": "http://terminology.hl7.org/CodeSystem/v3-ActSite",
              "code": "LA",
              "display": "left arm"
            }
          ]
        },
        "route": {
          "coding": [
            {
              "system": "http://terminology.hl7.org/CodeSystem/v3-RouteOfAdministration",
              "code": "IM",
              "display": "Injection, intramuscular"
            }
          ]
        },
        "doseQuantity": {
          "value": 0.5,
          "unit": "mL",
          "system": "http://unitsofmeasure.org",
          "code": "mL"
        },
        "protocolApplied": [
          {
            "doseNumberPositiveInt": 1,
            "seriesDosesPositiveInt": 1
          }
        ]
      },
      "request": {
        "method": "PUT",
        "url": "Immunization/TW00128-flu-1"
      }
    },
    {
      "resource": {
        "resourceType": "Patient",
        "id": "TW00119",
        "identifier": [
          {
            "system": "urn:oid:2.16.886.101.20003.20001",
            "value": "TW00119"
          }
        ],
        "name": [
          {
            "text": "曾家銘",
            "family": "曾",
            "given": [
              "家銘"
            ]
          }
        ],
        "gender": "male",
        "birthDate": "1962-11-24",
        "address": [
          {
            "city": "澎湖縣",
            "country": "TW"
          }
        ]
      },
      "request": {
        "method": "PUT",
        "url": "Patient/TW00119"
      }
    },
    {
      "resource": {
        "resourceType": "Immunization",
        "id": "TW00119-flu-1",
        "status": "completed",
        "vaccineCode": {
          "coding": [
            {
              "system": "http://hl7.org/fhir/sid/cvx",
              "code": "185",
              "display": "Influenza, seasonal, injectable, quadrivalent"
            }
          ],
          "text": "Influenza vaccine"
        },
        "patient": {
          "reference": "Patient/TW00119"
        },
        "occurrenceDateTime": "2024-11-28",
        "primarySource": true,
        "lotNumber": "LOT802402",
        "expirationDate": "2026-12-31",
        "site": {
          "coding": [
            {
              "system": "http://terminology.hl7.org/CodeSystem/v3-ActSite",
              "code": "LA",
              "display": "left arm"
            }
          ]
        },
        "route": {
          "coding": [
            {
              "system": "http://terminology.hl7.org/CodeSystem/v3-RouteOfAdministration",
              "code": "IM",
              "display": "Injection, intramuscular"
            }
          ]
        },
        "doseQuantity": {
          "value": 0.5,
          "unit": "mL",
          "system": "http://unitsofmeasure.org",
          "code": "mL"
        },
        "protocolApplied": [
          {
            "doseNumberPositiveInt": 1,
            "seriesDosesPositiveInt": 1
          }
        ]
      },
      "request": {
        "method": "PUT",
        "url": "Immunization/TW00119-flu-1"
      }
    },
    {
      "resource": {
        "resourceType": "Patient",
        "id": "TW00149",
        "identifier": [
          {
            "system": "urn:oid:2.16.886.101.20003.20001",
            "value": "TW00149"
          }
        ],
        "name": [
          {
            "text": "張雅芳",
            "family": "張",
            "given": [
              "雅芳"
            ]
          }
        ],
        "gender": "female",
        "birthDate": "1950-09-26",
        "address": [
          {
            "city": "彰化縣",
            "country": "TW"
          }
        ]
      },
      "request": {
        "method": "PUT",
        "url": "Patient/TW00149"
      }
    },
    {
      "resource": {
        "resourceType": "Immunization",
        "id": "TW00149-flu-1",
        "status": "completed",
        "vaccineCode": {
          "coding": [
            {
              "system": "http://hl7.org/fhir/sid/cvx",
              "code": "185",
              "display": "Influenza, seasonal, injectable, quadrivalent"
            }
          ],
          "text": "Influenza vaccine"
        },
        "patient": {
          "reference": "Patient/TW00149"
        },
        "occurrenceDateTime": "2025-01-19",
        "primarySource": true,
        "lotNumber": "LOT737711",
        "expirationDate": "2026-12-31",
        "site": {
          "coding": [
            {
              "system": "http://terminology.hl7.org/CodeSystem/v3-ActSite",
              "code": "LA",
              "display": "left arm"
            }
          ]
        },
        "route": {
          "coding": [
            {
              "system": "http://terminology.hl7.org/CodeSystem/v3-RouteOfAdministration",
              "code": "IM",
              "display": "Injection, intramuscular"
            }
          ]
        },
        "doseQuantity": {
          "value": 0.5,
          "unit": "mL",
          "system": "http://unitsofmeasure.org",
          "code": "mL"
        },
        "protocolApplied": [
          {
            "doseNumberPositiveInt": 1,
            "seriesDosesPositiveInt": 1
          }
        ]
      },
      "request": {
        "method": "PUT",
        "url": "Immunization/TW00149-flu-1"
      }
    },
    {
      "resource": {
        "resourceType": "Patient",
        "id": "TW00106",
        "identifier": [
          {
            "system": "urn:oid:2.16.886.101.20003.20001",
            "value": "TW00106"
          }
        ],
        "name": [
          {
            "text": "曾宇軒",
            "family": "曾",
            "given": [
              "宇軒"
            ]
          }
        ],
        "gender": "male",
        "birthDate": "1999-07-13",
        "address": [
          {
            "city": "南投縣",
            "country": "TW"
          }
        ]
      },
      "request": {
        "method": "PUT",
        "url": "Patient/TW00106"
      }
    },
    {
      "resource": {
        "resourceType": "Immunization",
        "id": "TW00106-flu-1",
        "status": "completed",
        "vaccineCode": {
          "coding": [
            {
              "system": "http://hl7.org/fhir/sid/cvx",
              "code": "185",
              "display": "Influenza, seasonal, injectable, quadrivalent"
            }
          ],
          "text": "Influenza vaccine"
        },
        "patient": {
          "reference": "Patient/TW00106"
        },
        "occurrenceDateTime": "2024-11-16",
        "primarySource": true,
        "lotNumber": "LOT766512",
        "expirationDate": "2026-12-31",
        "site": {
          "coding": [
            {
              "system": "http://terminology.hl7.org/CodeSystem/v3-ActSite",
              "code": "LA",
              "display": "left arm"
            }
          ]
        },
        "route": {
          "coding": [
            {
              "system": "http://terminology.hl7.org/CodeSystem/v3-RouteOfAdministration",
              "code": "IM",
              "display": "Injection, intramuscular"
            }
          ]
        },
        "doseQuantity": {
          "value": 0.5,
          "unit": "mL",
          "system": "http://unitsofmeasure.org",
          "code": "mL"
        },
        "protocolApplied": [
          {
            "doseNumberPositiveInt": 1,
            "seriesDosesPositiveInt": 1
          }
        ]
      },
      "request": {
        "method": "PUT",
        "url": "Immunization/TW00106-flu-1"
      }
    },
    {
      "resource": {
        "resourceType": "Patient",
        "id": "TW00181",
        "identifier": [
          {
            "system": "urn:oid:2.16.886.101.20003.20001",
            "value": "TW00181"
          }
        ],
        "name": [
          {
            "text": "許宜蓁",
            "family": "許",
            "given": [
              "宜蓁"
            ]
          }
        ],
        "gender": "female",
        "birthDate": "1968-11-24",
        "address": [
          {
            "city": "新北市",
            "country": "TW"
          }
        ]
      },
      "request": {
        "method": "PUT",
        "url": "Patient/TW00181"
      }
    },
    {
      "resource": {
        "resourceType": "Immunization",
        "id": "TW00181-flu-1",
        "status": "completed",
        "vaccineCode": {
          "coding": [
            {
              "system": "http://hl7.org/fhir/sid/cvx",
              "code": "141",
              "display": "Influenza, seasonal, injectable"
            }
          ],
          "text": "Influenza vaccine"
        },
        "patient": {
          "reference": "Patient/TW00181"
        },
        "occurrenceDateTime": "2024-12-18",
        "primarySource": true,
        "lotNumber": "LOT601106",
        "expirationDate": "2026-12-31",
        "site": {
          "coding": [
            {
              "system": "http://terminology.hl7.org/CodeSystem/v3-ActSite",
              "code": "LA",
              "display": "left arm"
            }
          ]
        },
        "route": {
          "coding": [
            {
              "system": "http://terminology.hl7.org/CodeSystem/v3-RouteOfAdministration",
              "code": "IM",
              "display": "Injection, intramuscular"
            }
          ]
        },
        "doseQuantity": {
          "value": 0.5,
          "unit": "mL",
          "system": "http://unitsofmeasure.org",
          "code": "mL"
        },
        "protocolApplied": [
          {
            "doseNumberPositiveInt": 1,
            "seriesDosesPositiveInt": 1
          }
        ]
      },
      "request": {
        "method": "PUT",
        "url": "Immunization/TW00181-flu-1"
      }
    },
    {
      "resource": {
        "resourceType": "Patient",
        "id": "TW00187",
        "identifier": [
          {
            "system": "urn:oid:2.16.886.101.20003.20001",
            "value": "TW00187"
          }
        ],
        "name": [
          {
            "text": "王雅芳",
            "family": "王",
            "given": [
              "雅芳"
            ]
          }
        ],
        "gender": "female",
        "birthDate": "1980-07-23",
        "address": [
          {
            "city": "澎湖縣",
            "country": "TW"
          }
        ]
      },
      "request": {
        "method": "PUT",
        "url": "Patient/TW00187"
      }
    },
    {
      "resource": {
        "resourceType": "Immunization",
        "id": "TW00187-flu-1",
        "status": "completed",
        "vaccineCode": {
          "coding": [
            {
              "system": "http://hl7.org/fhir/sid/cvx",
              "code": "185",
              "display": "Influenza, seasonal, injectable, quadrivalent"
            }
          ],
          "text": "Influenza vaccine"
        },
        "patient": {
          "reference": "Patient/TW00187"
        },
        "occurrenceDateTime": "2025-01-07",
        "primarySource": true,
        "lotNumber": "LOT358787",
        "expirationDate": "2026-12-31",
        "site": {
          "coding": [
            {
              "system": "http://terminology.hl7.org/CodeSystem/v3-ActSite",
              "code": "LA",
              "display": "left arm"
            }
          ]
        },
        "route": {
          "coding": [
            {
              "system": "http://terminology.hl7.org/CodeSystem/v3-RouteOfAdministration",
              "code": "IM",
              "display": "Injection, intramuscular"
            }
          ]
        },
        "doseQuantity": {
          "value": 0.5,
          "unit": "mL",
          "system": "http://unitsofmeasure.org",
          "code": "mL"
        },
        "protocolApplied": [
          {
            "doseNumberPositiveInt": 1,
            "seriesDosesPositiveInt": 1
          }
        ]
      },
      "request": {
        "method": "PUT",
        "url": "Immunization/TW00187-flu-1"
      }
    },
    {
      "resource": {
        "resourceType": "Patient",
        "id": "TW00132",
        "identifier": [
          {
            "system": "urn:oid:2.16.886.101.20003.20001",
            "value": "TW00132"
          }
        ],
        "name": [
          {
            "text": "許宜蓁",
            "family": "許",
            "given": [
              "宜蓁"
            ]
          }
        ],
        "gender": "female",
        "birthDate": "2000-01-05",
        "address": [
          {
            "city": "桃園市",
            "country": "TW"
          }
        ]
      },
      "request": {
        "method": "PUT",
        "url": "Patient/TW00132"
      }
    },
    {
      "resource": {
        "resourceType": "Immunization",
        "id": "TW00132-flu-1",
        "status": "completed",
        "vaccineCode": {
          "coding": [
            {
              "system": "http://hl7.org/fhir/sid/cvx",
              "code": "141",
              "display": "Influenza, seasonal, injectable"
            }
          ],
          "text": "Influenza vaccine"
        },
        "patient": {
          "reference": "Patient/TW00132"
        },
        "occurrenceDateTime": "2025-01-08",
        "primarySource": true,
        "lotNumber": "LOT789614",
        "expirationDate": "2026-12-31",
        "site": {
          "coding": [
            {
              "system": "http://terminology.hl7.org/CodeSystem/v3-ActSite",
              "code": "LA",
              "display": "left arm"
            }
          ]
        },
        "route": {
          "coding": [
            {
              "system": "http://terminology.hl7.org/CodeSystem/v3-RouteOfAdministration",
              "code": "IM",
              "display": "Injection, intramuscular"
            }
          ]
        },
        "doseQuantity": {
          "value": 0.5,
          "unit": "mL",
          "system": "http://unitsofmeasure.org",
          "code": "mL"
        },
        "protocolApplied": [
          {
            "doseNumberPositiveInt": 1,
            "seriesDosesPositiveInt": 1
          }
        ]
      },
      "request": {
        "method": "PUT",
        "url": "Immunization/TW00132-flu-1"
      }
    },
    {
      "resource": {
        "resourceType": "Patient",
        "id": "TW00154",
        "identifier": [
          {
            "system": "urn:oid:2.16.886.101.20003.20001",
            "value": "TW00154"
          }
        ],
        "name": [
          {
            "text": "洪政廷",
            "family": "洪",
            "given": [
              "政廷"
            ]
          }
        ],
        "gender": "male",
        "birthDate": "1940-01-24",
        "address": [
          {
            "city": "嘉義市",
            "country": "TW"
          }
        ]
      },
      "request": {
        "method": "PUT",
        "url": "Patient/TW00154"
      }
    },
    {
      "resource": {
        "resourceType": "Immunization",
        "id": "TW00154-flu-1",
        "status": "completed",
        "vaccineCode": {
          "coding": [
            {
              "system": "http://hl7.org/fhir/sid/cvx",
              "code": "141",
              "display": "Influenza, seasonal, injectable"
            }
          ],
          "text": "Influenza vaccine"
        },
        "patient": {
          "reference": "Patient/TW00154"
        },
        "occurrenceDateTime": "2024-10-26",
        "primarySource": true,
        "lotNumber": "LOT831611",
        "expirationDate": "2026-12-31",
        "site": {
          "coding": [
            {
              "system": "http://terminology.hl7.org/CodeSystem/v3-ActSite",
              "code": "LA",
              "display": "left arm"
            }
          ]
        },
        "route": {
          "coding": [
            {
              "system": "http://terminology.hl7.org/CodeSystem/v3-RouteOfAdministration",
              "code": "IM",
              "display": "Injection, intramuscular"
            }
          ]
        },
        "doseQuantity": {
          "value": 0.5,
          "unit": "mL",
          "system": "http://unitsofmeasure.org",
          "code": "mL"
        },
        "protocolApplied": [
          {
            "doseNumberPositiveInt": 1,
            "seriesDosesPositiveInt": 1
          }
        ]
      },
      "request": {
        "method": "PUT",
        "url": "Immunization/TW00154-flu-1"
      }
    },
    {
      "resource": {
        "resourceType": "Patient",
        "id": "TW00195",
        "identifier": [
          {
            "system": "urn:oid:2.16.886.101.20003.20001",
            "value": "TW00195"
          }
        ],
        "name": [
          {
            "text": "陳宜蓁",
            "family": "陳",
            "given": [
              "宜蓁"
            ]
          }
        ],
        "gender": "female",
        "birthDate": "1965-04-28",
        "address": [
          {
            "city": "南投縣",
            "country": "TW"
          }
        ]
      },
      "request": {
        "method": "PUT",
        "url": "Patient/TW00195"
      }
    },
    {
      "resource": {
        "resourceType": "Immunization",
        "id": "TW00195-flu-1",
        "status": "completed",
        "vaccineCode": {
          "coding": [
            {
              "system": "http://hl7.org/fhir/sid/cvx",
              "code": "185",
              "display": "Influenza, seasonal, injectable, quadrivalent"
            }
          ],
          "text": "Influenza vaccine"
        },
        "patient": {
          "reference": "Patient/TW00195"
        },
        "occurrenceDateTime": "2024-12-11",
        "primarySource": true,
        "lotNumber": "LOT969351",
        "expirationDate": "2026-12-31",
        "site": {
          "coding": [
            {
              "system": "http://terminology.hl7.org/CodeSystem/v3-ActSite",
              "code": "LA",
              "display": "left arm"
            }
          ]
        },
        "route": {
          "coding": [
            {
              "system": "http://terminology.hl7.org/CodeSystem/v3-RouteOfAdministration",
              "code": "IM",
              "display": "Injection, intramuscular"
            }
          ]
        },
        "doseQuantity": {
          "value": 0.5,
          "unit": "mL",
          "system": "http://unitsofmeasure.org",
          "code": "mL"
        },
        "protocolApplied": [
          {
            "doseNumberPositiveInt": 1,
            "seriesDosesPositiveInt": 1
          }
        ]
      },
      "request": {
        "method": "PUT",
        "url": "Immunization/TW00195-flu-1"
      }
    },
    {
      "resource": {
        "resourceType": "Patient",
        "id": "TW00193",
        "identifier": [
          {
            "system": "urn:oid:2.16.886.101.20003.20001",
            "value": "TW00193"
          }
        ],
        "name": [
          {
            "text": "邱建宏",
            "family": "邱",
            "given": [
              "建宏"
            ]
          }
        ],
        "gender": "male",
        "birthDate": "1951-09-03",
        "address": [
          {
            "city": "嘉義市",
            "country": "TW"
          }
        ]
      },
      "request": {
        "method": "PUT",
        "url": "Patient/TW00193"
      }
    },
    {
      "resource": {
        "resourceType": "Immunization",
        "id": "TW00193-flu-1",
        "status": "completed",
        "vaccineCode": {
          "coding": [
            {
              "system": "http://hl7.org/fhir/sid/cvx",
              "code": "185",
              "display": "Influenza, seasonal, injectable, quadrivalent"
            }
          ],
          "text": "Influenza vaccine"
        },
        "patient": {
          "reference": "Patient/TW00193"
        },
        "occurrenceDateTime": "2024-11-20",
        "primarySource": true,
        "lotNumber": "LOT934925",
        "expirationDate": "2026-12-31",
        "site": {
          "coding": [
            {
              "system": "http://terminology.hl7.org/CodeSystem/v3-ActSite",
              "code": "LA",
              "display": "left arm"
            }
          ]
        },
        "route": {
          "coding": [
            {
              "system": "http://terminology.hl7.org/CodeSystem/v3-RouteOfAdministration",
              "code": "IM",
              "display": "Injection, intramuscular"
            }
          ]
        },
        "doseQuantity": {
          "value": 0.5,
          "unit": "mL",
          "system": "http://unitsofmeasure.org",
          "code": "mL"
        },
        "protocolApplied": [
          {
            "doseNumberPositiveInt": 1,
            "seriesDosesPositiveInt": 1
          }
        ]
      },
      "request": {
        "method": "PUT",
        "url": "Immunization/TW00193-flu-1"
      }
    },
    {
      "resource": {
        "resourceType": "Patient",
        "id": "TW00143",
        "identifier": [
          {
            "system": "urn:oid:2.16.886.101.20003.20001",
            "value": "TW00143"
          }
        ],
        "name": [
          {
            "text": "賴淑惠",
            "family": "賴",
            "given": [
              "淑惠"
            ]
          }
        ],
        "gender": "female",
        "birthDate": "1996-10-10",
        "address": [
          {
            "city": "連江縣",
            "country": "TW"
          }
        ]
      },
      "request": {
        "method": "PUT",
        "url": "Patient/TW00143"
      }
    },
    {
      "resource": {
        "resourceType": "Immunization",
        "id": "TW00143-flu-1",
        "status": "completed",
        "vaccineCode": {
          "coding": [
            {
              "system": "http://hl7.org/fhir/sid/cvx",
              "code": "185",
              "display": "Influenza, seasonal, injectable, quadrivalent"
            }
          ],
          "text": "Influenza vaccine"
        },
        "patient": {
          "reference": "Patient/TW00143"
        },
        "occurrenceDateTime": "2025-01-09",
        "primarySource": true,
        "lotNumber": "LOT164460",
        "expirationDate": "2026-12-31",
        "site": {
          "coding": [
            {
              "system": "http://terminology.hl7.org/CodeSystem/v3-ActSite",
              "code": "LA",
              "display": "left arm"
            }
          ]
        },
        "route": {
          "coding": [
            {
              "system": "http://terminology.hl7.org/CodeSystem/v3-RouteOfAdministration",
              "code": "IM",
              "display": "Injection, intramuscular"
            }
          ]
        },
        "doseQuantity": {
          "value": 0.5,
          "unit": "mL",
          "system": "http://unitsofmeasure.org",
          "code": "mL"
        },
        "protocolApplied": [
          {
            "doseNumberPositiveInt": 1,
            "seriesDosesPositiveInt": 1
          }
        ]
      },
      "request": {
        "method": "PUT",
        "url": "Immunization/TW00143-flu-1"
      }
    },
    {
      "resource": {
        "resourceType": "Patient",
        "id": "TW00173",
        "identifier": [
          {
            "system": "urn:oid:2.16.886.101.20003.20001",
            "value": "TW00173"
          }
        ],
        "name": [
          {
            "text": "林明哲",
            "family": "林",
            "given": [
              "明哲"
            ]
          }
        ],
        "gender": "male",
        "birthDate": "2000-12-19",
        "address": [
          {
            "city": "澎湖縣",
            "country": "TW"
          }
        ]
      },
      "request": {
        "method": "PUT",
        "url": "Patient/TW00173"
      }
    },
    {
      "resource": {
        "resourceType": "Immunization",
        "id": "TW00173-flu-1",
        "status": "completed",
        "vaccineCode": {
          "coding": [
            {
              "system": "http://hl7.org/fhir/sid/cvx",
              "code": "141",
              "display": "Influenza, seasonal, injectable"
            }
          ],
          "text": "Influenza vaccine"
        },
        "patient": {
          "reference": "Patient/TW00173"
        },
        "occurrenceDateTime": "2024-11-30",
        "primarySource": true,
        "lotNumber": "LOT722599",
        "expirationDate": "2026-12-31",
        "site": {
          "coding": [
            {
              "system": "http://terminology.hl7.org/CodeSystem/v3-ActSite",
              "code": "LA",
              "display": "left arm"
            }
          ]
        },
        "route": {
          "coding": [
            {
              "system": "http://terminology.hl7.org/CodeSystem/v3-RouteOfAdministration",
              "code": "IM",
              "display": "Injection, intramuscular"
            }
          ]
        },
        "doseQuantity": {
          "value": 0.5,
          "unit": "mL",
          "system": "http://unitsofmeasure.org",
          "code": "mL"
        },
        "protocolApplied": [
          {
            "doseNumberPositiveInt": 1,
            "seriesDosesPositiveInt": 1
          }
        ]
      },
      "request": {
        "method": "PUT",
        "url": "Immunization/TW00173-flu-1"
      }
    },
    {
      "resource": {
        "resourceType": "Patient",
        "id": "TW00124",
        "identifier": [
          {
            "system": "urn:oid:2.16.886.101.20003.20001",
            "value": "TW00124"
          }
        ],
        "name": [
          {
            "text": "謝冠宇",
            "family": "謝",
            "given": [
              "冠宇"
            ]
          }
        ],
        "gender": "male",
        "birthDate": "1965-03-12",
        "address": [
          {
            "city": "屏東縣",
            "country": "TW"
          }
        ]
      },
      "request": {
        "method": "PUT",
        "url": "Patient/TW00124"
      }
    },
    {
      "resource": {
        "resourceType": "Immunization",
        "id": "TW00124-flu-1",
        "status": "completed",
        "vaccineCode": {
          "coding": [
            {
              "system": "http://hl7.org/fhir/sid/cvx",
              "code": "141",
              "display": "Influenza, seasonal, injectable"
            }
          ],
          "text": "Influenza vaccine"
        },
        "patient": {
          "reference": "Patient/TW00124"
        },
        "occurrenceDateTime": "2025-01-23",
        "primarySource": true,
        "lotNumber": "LOT468832",
        "expirationDate": "2026-12-31",
        "site": {
          "coding": [
            {
              "system": "http://terminology.hl7.org/CodeSystem/v3-ActSite",
              "code": "LA",
              "display": "left arm"
            }
          ]
        },
        "route": {
          "coding": [
            {
              "system": "http://terminology.hl7.org/CodeSystem/v3-RouteOfAdministration",
              "code": "IM",
              "display": "Injection, intramuscular"
            }
          ]
        },
        "doseQuantity": {
          "value": 0.5,
          "unit": "mL",
          "system": "http://unitsofmeasure.org",
          "code": "mL"
        },
        "protocolApplied": [
          {
            "doseNumberPositiveInt": 1,
            "seriesDosesPositiveInt": 1
          }
        ]
      },
      "request": {
        "method": "PUT",
        "url": "Immunization/TW00124-flu-1"
      }
    },
    {
      "resource": {
        "resourceType": "Patient",
        "id": "TW00107",
        "identifier": [
          {
            "system": "urn:oid:2.16.886.101.20003.20001",
            "value": "TW00107"
          }
        ],
        "name": [
          {
            "text": "吳怡靜",
            "family": "吳",
            "given": [
              "怡靜"
            ]
          }
        ],
        "gender": "female",
        "birthDate": "1974-07-24",
        "address": [
          {
            "city": "南投縣",
            "country": "TW"
          }
        ]
      },
      "request": {
        "method": "PUT",
        "url": "Patient/TW00107"
      }
    },
    {
      "resource": {
        "resourceType": "Immunization",
        "id": "TW00107-flu-1",
        "status": "completed",
        "vaccineCode": {
          "coding": [
            {
              "system": "http://hl7.org/fhir/sid/cvx",
              "code": "141",
              "display": "Influenza, seasonal, injectable"
            }
          ],
          "text": "Influenza vaccine"
        },
        "patient": {
          "reference": "Patient/TW00107"
        },
        "occurrenceDateTime": "2024-12-02",
        "primarySource": true,
        "lotNumber": "LOT181619",
        "expirationDate": "2026-12-31",
        "site": {
          "coding": [
            {
              "system": "http://terminology.hl7.org/CodeSystem/v3-ActSite",
              "code": "LA",
              "display": "left arm"
            }
          ]
        },
        "route": {
          "coding": [
            {
              "system": "http://terminology.hl7.org/CodeSystem/v3-RouteOfAdministration",
              "code": "IM",
              "display": "Injection, intramuscular"
            }
          ]
        },
        "doseQuantity": {
          "value": 0.5,
          "unit": "mL",
          "system": "http://unitsofmeasure.org",
          "code": "mL"
        },
        "protocolApplied": [
          {
            "doseNumberPositiveInt": 1,
            "seriesDosesPositiveInt": 1
          }
        ]
      },
      "request": {
        "method": "PUT",
        "url": "Immunization/TW00107-flu-1"
      }
    },
    {
      "resource": {
        "resourceType": "Patient",
        "id": "TW00110",
        "identifier": [
          {
            "system": "urn:oid:2.16.886.101.20003.20001",
            "value": "TW00110"
          }
        ],
        "name": [
          {
            "text": "曾秀英",
            "family": "曾",
            "given": [
              "秀英"
            ]
          }
        ],
        "gender": "female",
        "birthDate": "1961-07-26",
        "address": [
          {
            "city": "台中市",
            "country": "TW"
          }
        ]
      },
      "request": {
        "method": "PUT",
        "url": "Patient/TW00110"
      }
    },
    {
      "resource": {
        "resourceType": "Immunization",
        "id": "TW00110-flu-1",
        "status": "completed",
        "vaccineCode": {
          "coding": [
            {
              "system": "http://hl7.org/fhir/sid/cvx",
              "code": "141",
              "display": "Influenza, seasonal, injectable"
            }
          ],
          "text": "Influenza vaccine"
        },
        "patient": {
          "reference": "Patient/TW00110"
        },
        "occurrenceDateTime": "2024-10-23",
        "primarySource": true,
        "lotNumber": "LOT431138",
        "expirationDate": "2026-12-31",
        "site": {
          "coding": [
            {
              "system": "http://terminology.hl7.org/CodeSystem/v3-ActSite",
              "code": "LA",
              "display": "left arm"
            }
          ]
        },
        "route": {
          "coding": [
            {
              "system": "http://terminology.hl7.org/CodeSystem/v3-RouteOfAdministration",
              "code": "IM",
              "display": "Injection, intramuscular"
            }
          ]
        },
        "doseQuantity": {
          "value": 0.5,
          "unit": "mL",
          "system": "http://unitsofmeasure.org",
          "code": "mL"
        },
        "protocolApplied": [
          {
            "doseNumberPositiveInt": 1,
            "seriesDosesPositiveInt": 1
          }
        ]
      },
      "request": {
        "method": "PUT",
        "url": "Immunization/TW00110-flu-1"
      }
    },
    {
      "resource": {
        "resourceType": "Patient",
        "id": "TW00184",
        "identifier": [
          {
            "system": "urn:oid:2.16.886.101.20003.20001",
            "value": "TW00184"
          }
        ],
        "name": [
          {
            "text": "許冠廷",
            "family": "許",
            "given": [
              "冠廷"
            ]
          }
        ],
        "gender": "male",
        "birthDate": "2002-06-13",
        "address": [
          {
            "city": "彰化縣",
            "country": "TW"
          }
        ]
      },
      "request": {
        "method": "PUT",
        "url": "Patient/TW00184"
      }
    },
    {
      "resource": {
        "resourceType": "Immunization",
        "id": "TW00184-flu-1",
        "status": "completed",
        "vaccineCode": {
          "coding": [
            {
              "system": "http://hl7.org/fhir/sid/cvx",
              "code": "185",
              "display": "Influenza, seasonal, injectable, quadrivalent"
            }
          ],
          "text": "Influenza vaccine"
        },
        "patient": {
          "reference": "Patient/TW00184"
        },
        "occurrenceDateTime": "2024-12-25",
        "primarySource": true,
        "lotNumber": "LOT717322",
        "expirationDate": "2026-12-31",
        "site": {
          "coding": [
            {
              "system": "http://terminology.hl7.org/CodeSystem/v3-ActSite",
              "code": "LA",
              "display": "left arm"
            }
          ]
        },
        "route": {
          "coding": [
            {
              "system": "http://terminology.hl7.org/CodeSystem/v3-RouteOfAdministration",
              "code": "IM",
              "display": "Injection, intramuscular"
            }
          ]
        },
        "doseQuantity": {
          "value": 0.5,
          "unit": "mL",
          "system": "http://unitsofmeasure.org",
          "code": "mL"
        },
        "protocolApplied": [
          {
            "doseNumberPositiveInt": 1,
            "seriesDosesPositiveInt": 1
          }
        ]
      },
      "request": {
        "method": "PUT",
        "url": "Immunization/TW00184-flu-1"
      }
    },
    {
      "resource": {
        "resourceType": "Patient",
        "id": "TW00166",
        "identifier": [
          {
            "system": "urn:oid:2.16.886.101.20003.20001",
            "value": "TW00166"
          }
        ],
        "name": [
          {
            "text": "賴冠宇",
            "family": "賴",
            "given": [
              "冠宇"
            ]
          }
        ],
        "gender": "male",
        "birthDate": "2006-10-19",
        "address": [
          {
            "city": "台東縣",
            "country": "TW"
          }
        ]
      },
      "request": {
        "method": "PUT",
        "url": "Patient/TW00166"
      }
    },
    {
      "resource": {
        "resourceType": "Immunization",
        "id": "TW00166-flu-1",
        "status": "completed",
        "vaccineCode": {
          "coding": [
            {
              "system": "http://hl7.org/fhir/sid/cvx",
              "code": "185",
              "display": "Influenza, seasonal, injectable, quadrivalent"
            }
          ],
          "text": "Influenza vaccine"
        },
        "patient": {
          "reference": "Patient/TW00166"
        },
        "occurrenceDateTime": "2025-01-14",
        "primarySource": true,
        "lotNumber": "LOT347727",
        "expirationDate": "2026-12-31",
        "site": {
          "coding": [
            {
              "system": "http://terminology.hl7.org/CodeSystem/v3-ActSite",
              "code": "LA",
              "display": "left arm"
            }
          ]
        },
        "route": {
          "coding": [
            {
              "system": "http://terminology.hl7.org/CodeSystem/v3-RouteOfAdministration",
              "code": "IM",
              "display": "Injection, intramuscular"
            }
          ]
        },
        "doseQuantity": {
          "value": 0.5,
          "unit": "mL",
          "system": "http://unitsofmeasure.org",
          "code": "mL"
        },
        "protocolApplied": [
          {
            "doseNumberPositiveInt": 1,
            "seriesDosesPositiveInt": 1
          }
        ]
      },
      "request": {
        "method": "PUT",
        "url": "Immunization/TW00166-flu-1"
      }
    },
    {
      "resource": {
        "resourceType": "Patient",
        "id": "TW00125",
        "identifier": [
          {
            "system": "urn:oid:2.16.886.101.20003.20001",
            "value": "TW00125"
          }
        ],
        "name": [
          {
            "text": "謝雅雯",
            "family": "謝",
            "given": [
              "雅雯"
            ]
          }
        ],
        "gender": "female",
        "birthDate": "1994-03-06",
        "address": [
          {
            "city": "高雄市",
            "country": "TW"
          }
        ]
      },
      "request": {
        "method": "PUT",
        "url": "Patient/TW00125"
      }
    },
    {
      "resource": {
        "resourceType": "Immunization",
        "id": "TW00125-flu-1",
        "status": "completed",
        "vaccineCode": {
          "coding": [
            {
              "system": "http://hl7.org/fhir/sid/cvx",
              "code": "141",
              "display": "Influenza, seasonal, injectable"
            }
          ],
          "text": "Influenza vaccine"
        },
        "patient": {
          "reference": "Patient/TW00125"
        },
        "occurrenceDateTime": "2024-12-06",
        "primarySource": true,
        "lotNumber": "LOT735039",
        "expirationDate": "2026-12-31",
        "site": {
          "coding": [
            {
              "system": "http://terminology.hl7.org/CodeSystem/v3-ActSite",
              "code": "LA",
              "display": "left arm"
            }
          ]
        },
        "route": {
          "coding": [
            {
              "system": "http://terminology.hl7.org/CodeSystem/v3-RouteOfAdministration",
              "code": "IM",
              "display": "Injection, intramuscular"
            }
          ]
        },
        "doseQuantity": {
          "value": 0.5,
          "unit": "mL",
          "system": "http://unitsofmeasure.org",
          "code": "mL"
        },
        "protocolApplied": [
          {
            "doseNumberPositiveInt": 1,
            "seriesDosesPositiveInt": 1
          }
        ]
      },
      "request": {
        "method": "PUT",
        "url": "Immunization/TW00125-flu-1"
      }
    },
    {
      "resource": {
        "resourceType": "Patient",
        "id": "TW00156",
        "identifier": [
          {
            "system": "urn:oid:2.16.886.101.20003.20001",
            "value": "TW00156"
          }
        ],
        "name": [
          {
            "text": "廖宇軒",
            "family": "廖",
            "given": [
              "宇軒"
            ]
          }
        ],
        "gender": "male",
        "birthDate": "1955-01-10",
        "address": [
          {
            "city": "雲林縣",
            "country": "TW"
          }
        ]
      },
      "request": {
        "method": "PUT",
        "url": "Patient/TW00156"
      }
    },
    {
      "resource": {
        "resourceType": "Immunization",
        "id": "TW00156-flu-1",
        "status": "completed",
        "vaccineCode": {
          "coding": [
            {
              "system": "http://hl7.org/fhir/sid/cvx",
              "code": "141",
              "display": "Influenza, seasonal, injectable"
            }
          ],
          "text": "Influenza vaccine"
        },
        "patient": {
          "reference": "Patient/TW00156"
        },
        "occurrenceDateTime": "2024-10-30",
        "primarySource": true,
        "lotNumber": "LOT830360",
        "expirationDate": "2026-12-31",
        "site": {
          "coding": [
            {
              "system": "http://terminology.hl7.org/CodeSystem/v3-ActSite",
              "code": "LA",
              "display": "left arm"
            }
          ]
        },
        "route": {
          "coding": [
            {
              "system": "http://terminology.hl7.org/CodeSystem/v3-RouteOfAdministration",
              "code": "IM",
              "display": "Injection, intramuscular"
            }
          ]
        },
        "doseQuantity": {
          "value": 0.5,
          "unit": "mL",
          "system": "http://unitsofmeasure.org",
          "code": "mL"
        },
        "protocolApplied": [
          {
            "doseNumberPositiveInt": 1,
            "seriesDosesPositiveInt": 1
          }
        ]
      },
      "request": {
        "method": "PUT",
        "url": "Immunization/TW00156-flu-1"
      }
    },
    {
      "resource": {
        "resourceType": "Patient",
        "id": "TW00170",
        "identifier": [
          {
            "system": "urn:oid:2.16.886.101.20003.20001",
            "value": "TW00170"
          }
        ],
        "name": [
          {
            "text": "許佳穎",
            "family": "許",
            "given": [
              "佳穎"
            ]
          }
        ],
        "gender": "female",
        "birthDate": "1969-06-24",
        "address": [
          {
            "city": "南投縣",
            "country": "TW"
          }
        ]
      },
      "request": {
        "method": "PUT",
        "url": "Patient/TW00170"
      }
    },
    {
      "resource": {
        "resourceType": "Immunization",
        "id": "TW00170-covid-1",
        "status": "completed",
        "vaccineCode": {
          "coding": [
            {
              "system": "http://hl7.org/fhir/sid/cvx",
              "code": "208",
              "display": "COVID-19, mRNA, LNP-S, PF, 30 mcg/0.3 mL dose (Pfizer)"
            }
          ],
          "text": "COVID-19 vaccine"
        },
        "patient": {
          "reference": "Patient/TW00170"
        },
        "occurrenceDateTime": "2024-10-22",
        "primarySource": true,
        "lotNumber": "LOT816748",
        "expirationDate": "2026-12-31",
        "site": {
          "coding": [
            {
              "system": "http://terminology.hl7.org/CodeSystem/v3-ActSite",
              "code": "LA",
              "display": "left arm"
            }
          ]
        },
        "route": {
          "coding": [
            {
              "system": "http://terminology.hl7.org/CodeSystem/v3-RouteOfAdministration",
              "code": "IM",
              "display": "Injection, intramuscular"
            }
          ]
        },
        "doseQuantity": {
          "value": 0.5,
          "unit": "mL",
          "system": "http://unitsofmeasure.org",
          "code": "mL"
        },
        "protocolApplied": [
          {
            "doseNumberPositiveInt": 1,
            "seriesDosesPositiveInt": 2
          }
        ]
      },
      "request": {
        "method": "PUT",
        "url": "Immunization/TW00170-covid-1"
      }
    },
    {
      "resource": {
        "resourceType": "Immunization",
        "id": "TW00170-covid-2",
        "status": "completed",
        "vaccineCode": {
          "coding": [
            {
              "system": "http://hl7.org/fhir/sid/cvx",
              "code": "208",
              "display": "COVID-19, mRNA, LNP-S, PF, 30 mcg/0.3 mL dose (Pfizer)"
            }
          ],
          "text": "COVID-19 vaccine"
        },
        "patient": {
          "reference": "Patient/TW00170"
        },
        "occurrenceDateTime": "2024-06-07",
        "primarySource": true,
        "lotNumber": "LOT804501",
        "expirationDate": "2026-12-31",
        "site": {
          "coding": [
            {
              "system": "http://terminology.hl7.org/CodeSystem/v3-ActSite",
              "code": "LA",
              "display": "left arm"
            }
          ]
        },
        "route": {
          "coding": [
            {
              "system": "http://terminology.hl7.org/CodeSystem/v3-RouteOfAdministration",
              "code": "IM",
              "display": "Injection, intramuscular"
            }
          ]
        },
        "doseQuantity": {
          "value": 0.5,
          "unit": "mL",
          "system": "http://unitsofmeasure.org",
          "code": "mL"
        },
        "protocolApplied": [
          {
            "doseNumberPositiveInt": 2,
            "seriesDosesPositiveInt": 2
          }
        ]
      },
      "request": {
        "method": "PUT",
        "url": "Immunization/TW00170-covid-2"
      }
    },
    {
      "resource": {
        "resourceType": "Patient",
        "id": "TW00189",
        "identifier": [
          {
            "system": "urn:oid:2.16.886.101.20003.20001",
            "value": "TW00189"
          }
        ],
        "name": [
          {
            "text": "賴文雄",
            "family": "賴",
            "given": [
              "文雄"
            ]
          }
        ],
        "gender": "male",
        "birthDate": "1967-11-19",
        "address": [
          {
            "city": "金門縣",
            "country": "TW"
          }
        ]
      },
      "request": {
        "method": "PUT",
        "url": "Patient/TW00189"
      }
    },
    {
      "resource": {
        "resourceType": "Immunization",
        "id": "TW00189-covid-1",
        "status": "completed",
        "vaccineCode": {
          "coding": [
            {
              "system": "http://hl7.org/fhir/sid/cvx",
              "code": "207",
              "display": "COVID-19, mRNA, LNP-S, PF, 100 mcg/0.5 mL dose (Moderna)"
            }
          ],
          "text": "COVID-19 vaccine"
        },
        "patient": {
          "reference": "Patient/TW00189"
        },
        "occurrenceDateTime": "2024-09-26",
        "primarySource": true,
        "lotNumber": "LOT182531",
        "expirationDate": "2026-12-31",
        "site": {
          "coding": [
            {
              "system": "http://terminology.hl7.org/CodeSystem/v3-ActSite",
              "code": "LA",
              "display": "left arm"
            }
          ]
        },
        "route": {
          "coding": [
            {
              "system": "http://terminology.hl7.org/CodeSystem/v3-RouteOfAdministration",
              "code": "IM",
              "display": "Injection, intramuscular"
            }
          ]
        },
        "doseQuantity": {
          "value": 0.5,
          "unit": "mL",
          "system": "http://unitsofmeasure.org",
          "code": "mL"
        },
        "protocolApplied": [
          {
            "doseNumberPositiveInt": 1,
            "seriesDosesPositiveInt": 1
          }
        ]
      },
      "request": {
        "method": "PUT",
        "url": "Immunization/TW00189-covid-1"
      }
    },
    {
      "resource": {
        "resourceType": "Patient",
        "id": "TW00177",
        "identifier": [
          {
            "system": "urn:oid:2.16.886.101.20003.20001",
            "value": "TW00177"
          }
        ],
        "name": [
          {
            "text": "楊怡靜",
            "family": "楊",
            "given": [
              "怡靜"
            ]
          }
        ],
        "gender": "female",
        "birthDate": "1959-06-03",
        "address": [
          {
            "city": "連江縣",
            "country": "TW"
          }
        ]
      },
      "request": {
        "method": "PUT",
        "url": "Patient/TW00177"
      }
    },
    {
      "resource": {
        "resourceType": "Immunization",
        "id": "TW00177-covid-1",
        "status": "completed",
        "vaccineCode": {
          "coding": [
            {
              "system": "http://hl7.org/fhir/sid/cvx",
              "code": "207",
              "display": "COVID-19, mRNA, LNP-S, PF, 100 mcg/0.5 mL dose (Moderna)"
            }
          ],
          "text": "COVID-19 vaccine"
        },
        "patient": {
          "reference": "Patient/TW00177"
        },
        "occurrenceDateTime": "2024-09-11",
        "primarySource": true,
        "lotNumber": "LOT194425",
        "expirationDate": "2026-12-31",
        "site": {
          "coding": [
            {
              "system": "http://terminology.hl7.org/CodeSystem/v3-ActSite",
              "code": "LA",
              "display": "left arm"
            }
          ]
        },
        "route": {
          "coding": [
            {
              "system": "http://terminology.hl7.org/CodeSystem/v3-RouteOfAdministration",
              "code": "IM",
              "display": "Injection, intramuscular"
            }
          ]
        },
        "doseQuantity": {
          "value": 0.5,
          "unit": "mL",
          "system": "http://unitsofmeasure.org",
          "code": "mL"
        },
        "protocolApplied": [
          {
            "doseNumberPositiveInt": 1,
            "seriesDosesPositiveInt": 1
          }
        ]
      },
      "request": {
        "method": "PUT",
        "url": "Immunization/TW00177-covid-1"
      }
    },
    {
      "resource": {
        "resourceType": "Patient",
        "id": "TW00114",
        "identifier": [
          {
            "system": "urn:oid:2.16.886.101.20003.20001",
            "value": "TW00114"
          }
        ],
        "name": [
          {
            "text": "張冠宇",
            "family": "張",
            "given": [
              "冠宇"
            ]
          }
        ],
        "gender": "male",
        "birthDate": "1952-11-09",
        "address": [
          {
            "city": "新北市",
            "country": "TW"
          }
        ]
      },
      "request": {
        "method": "PUT",
        "url": "Patient/TW00114"
      }
    },
    {
      "resource": {
        "resourceType": "Immunization",
        "id": "TW00114-covid-1",
        "status": "completed",
        "vaccineCode": {
          "coding": [
            {
              "system": "http://hl7.org/fhir/sid/cvx",
              "code": "207",
              "display": "COVID-19, mRNA, LNP-S, PF, 100 mcg/0.5 mL dose (Moderna)"
            }
          ],
          "text": "COVID-19 vaccine"
        },
        "patient": {
          "reference": "Patient/TW00114"
        },
        "occurrenceDateTime": "2024-07-25",
        "primarySource": true,
        "lotNumber": "LOT837867",
        "expirationDate": "2026-12-31",
        "site": {
          "coding": [
            {
              "system": "http://terminology.hl7.org/CodeSystem/v3-ActSite",
              "code": "LA",
              "display": "left arm"
            }
          ]
        },
        "route": {
          "coding": [
            {
              "system": "http://terminology.hl7.org/CodeSystem/v3-RouteOfAdministration",
              "code": "IM",
              "display": "Injection, intramuscular"
            }
          ]
        },
        "doseQuantity": {
          "value": 0.5,
          "unit": "mL",
          "system": "http://unitsofmeasure.org",
          "code": "mL"
        },
        "protocolApplied": [
          {
            "doseNumberPositiveInt": 1,
            "seriesDosesPositiveInt": 3
          }
        ]
      },
      "request": {
        "method": "PUT",
        "url": "Immunization/TW00114-covid-1"
      }
    },
    {
      "resource": {
        "resourceType": "Immunization",
        "id": "TW00114-covid-2",
        "status": "completed",
        "vaccineCode": {
          "coding": [
            {
              "system": "http://hl7.org/fhir/sid/cvx",
              "code": "207",
              "display": "COVID-19, mRNA, LNP-S, PF, 100 mcg/0.5 mL dose (Moderna)"
            }
          ],
          "text": "COVID-19 vaccine"
        },
        "patient": {
          "reference": "Patient/TW00114"
        },
        "occurrenceDateTime": "2024-04-19",
        "primarySource": true,
        "lotNumber": "LOT437794",
        "expirationDate": "2026-12-31",
        "site": {
          "coding": [
            {
              "system": "http://terminology.hl7.org/CodeSystem/v3-ActSite",
              "code": "LA",
              "display": "left arm"
            }
          ]
        },
        "route": {
          "coding": [
            {
              "system": "http://terminology.hl7.org/CodeSystem/v3-RouteOfAdministration",
              "code": "IM",
              "display": "Injection, intramuscular"
            }
          ]
        },
        "doseQuantity": {
          "value": 0.5,
          "unit": "mL",
          "system": "http://unitsofmeasure.org",
          "code": "mL"
        },
        "protocolApplied": [
          {
            "doseNumberPositiveInt": 2,
            "seriesDosesPositiveInt": 3
          }
        ]
      },
      "request": {
        "method": "PUT",
        "url": "Immunization/TW00114-covid-2"
      }
    },
    {
      "resource": {
        "resourceType": "Immunization",
        "id": "TW00114-covid-3",
        "status": "completed",
        "vaccineCode": {
          "coding": [
            {
              "system": "http://hl7.org/fhir/sid/cvx",
              "code": "207",
              "display": "COVID-19, mRNA, LNP-S, PF, 100 mcg/0.5 mL dose (Moderna)"
            }
          ],
          "text": "COVID-19 vaccine"
        },
        "patient": {
          "reference": "Patient/TW00114"
        },
        "occurrenceDateTime": "2024-12-27",
        "primarySource": true,
        "lotNumber": "LOT624249",
        "expirationDate": "2026-12-31",
        "site": {
          "coding": [
            {
              "system": "http://terminology.hl7.org/CodeSystem/v3-ActSite",
              "code": "LA",
              "display": "left arm"
            }
          ]
        },
        "route": {
          "coding": [
            {
              "system": "http://terminology.hl7.org/CodeSystem/v3-RouteOfAdministration",
              "code": "IM",
              "display": "Injection, intramuscular"
            }
          ]
        },
        "doseQuantity": {
          "value": 0.5,
          "unit": "mL",
          "system": "http://unitsofmeasure.org",
          "code": "mL"
        },
        "protocolApplied": [
          {
            "doseNumberPositiveInt": 3,
            "seriesDosesPositiveInt": 3
          }
        ]
      },
      "request": {
        "method": "PUT",
        "url": "Immunization/TW00114-covid-3"
      }
    },
    {
      "resource": {
        "resourceType": "Patient",
        "id": "TW00140",
        "identifier": [
          {
            "system": "urn:oid:2.16.886.101.20003.20001",
            "value": "TW00140"
          }
        ],
        "name": [
          {
            "text": "謝雅芳",
            "family": "謝",
            "given": [
              "雅芳"
            ]
          }
        ],
        "gender": "female",
        "birthDate": "1950-06-28",
        "address": [
          {
            "city": "屏東縣",
            "country": "TW"
          }
        ]
      },
      "request": {
        "method": "PUT",
        "url": "Patient/TW00140"
      }
    },
    {
      "resource": {
        "resourceType": "Immunization",
        "id": "TW00140-covid-1",
        "status": "completed",
        "vaccineCode": {
          "coding": [
            {
              "system": "http://hl7.org/fhir/sid/cvx",
              "code": "207",
              "display": "COVID-19, mRNA, LNP-S, PF, 100 mcg/0.5 mL dose (Moderna)"
            }
          ],
          "text": "COVID-19 vaccine"
        },
        "patient": {
          "reference": "Patient/TW00140"
        },
        "occurrenceDateTime": "2024-01-31",
        "primarySource": true,
        "lotNumber": "LOT475329",
        "expirationDate": "2026-12-31",
        "site": {
          "coding": [
            {
              "system": "http://terminology.hl7.org/CodeSystem/v3-ActSite",
              "code": "LA",
              "display": "left arm"
            }
          ]
        },
        "route": {
          "coding": [
            {
              "system": "http://terminology.hl7.org/CodeSystem/v3-RouteOfAdministration",
              "code": "IM",
              "display": "Injection, intramuscular"
            }
          ]
        },
        "doseQuantity": {
          "value": 0.5,
          "unit": "mL",
          "system": "http://unitsofmeasure.org",
          "code": "mL"
        },
        "protocolApplied": [
          {
            "doseNumberPositiveInt": 1,
            "seriesDosesPositiveInt": 1
          }
        ]
      },
      "request": {
        "method": "PUT",
        "url": "Immunization/TW00140-covid-1"
      }
    },
    {
      "resource": {
        "resourceType": "Patient",
        "id": "TW00199",
        "identifier": [
          {
            "system": "urn:oid:2.16.886.101.20003.20001",
            "value": "TW00199"
          }
        ],
        "name": [
          {
            "text": "張文雄",
            "family": "張",
            "given": [
              "文雄"
            ]
          }
        ],
        "gender": "male",
        "birthDate": "1986-08-25",
        "address": [
          {
            "city": "屏東縣",
            "country": "TW"
          }
        ]
      },
      "request": {
        "method": "PUT",
        "url": "Patient/TW00199"
      }
    },
    {
      "resource": {
        "resourceType": "Immunization",
        "id": "TW00199-covid-1",
        "status": "completed",
        "vaccineCode": {
          "coding": [
            {
              "system": "http://hl7.org/fhir/sid/cvx",
              "code": "207",
              "display": "COVID-19, mRNA, LNP-S, PF, 100 mcg/0.5 mL dose (Moderna)"
            }
          ],
          "text": "COVID-19 vaccine"
        },
        "patient": {
          "reference": "Patient/TW00199"
        },
        "occurrenceDateTime": "2024-07-09",
        "primarySource": true,
        "lotNumber": "LOT650322",
        "expirationDate": "2026-12-31",
        "site": {
          "coding": [
            {
              "system": "http://terminology.hl7.org/CodeSystem/v3-ActSite",
              "code": "LA",
              "display": "left arm"
            }
          ]
        },
        "route": {
          "coding": [
            {
              "system": "http://terminology.hl7.org/CodeSystem/v3-RouteOfAdministration",
              "code": "IM",
              "display": "Injection, intramuscular"
            }
          ]
        },
        "doseQuantity": {
          "value": 0.5,
          "unit": "mL",
          "system": "http://unitsofmeasure.org",
          "code": "mL"
        },
        "protocolApplied": [
          {
            "doseNumberPositiveInt": 1,
            "seriesDosesPositiveInt": 2
          }
        ]
      },
      "request": {
        "method": "PUT",
        "url": "Immunization/TW00199-covid-1"
      }
    },
    {
      "resource": {
        "resourceType": "Immunization",
        "id": "TW00199-covid-2",
        "status": "completed",
        "vaccineCode": {
          "coding": [
            {
              "system": "http://hl7.org/fhir/sid/cvx",
              "code": "208",
              "display": "COVID-19, mRNA, LNP-S, PF, 30 mcg/0.3 mL dose (Pfizer)"
            }
          ],
          "text": "COVID-19 vaccine"
        },
        "patient": {
          "reference": "Patient/TW00199"
        },
        "occurrenceDateTime": "2024-11-07",
        "primarySource": true,
        "lotNumber": "LOT308028",
        "expirationDate": "2026-12-31",
        "site": {
          "coding": [
            {
              "system": "http://terminology.hl7.org/CodeSystem/v3-ActSite",
              "code": "LA",
              "display": "left arm"
            }
          ]
        },
        "route": {
          "coding": [
            {
              "system": "http://terminology.hl7.org/CodeSystem/v3-RouteOfAdministration",
              "code": "IM",
              "display": "Injection, intramuscular"
            }
          ]
        },
        "doseQuantity": {
          "value": 0.5,
          "unit": "mL",
          "system": "http://unitsofmeasure.org",
          "code": "mL"
        },
        "protocolApplied": [
          {
            "doseNumberPositiveInt": 2,
            "seriesDosesPositiveInt": 2
          }
        ]
      },
      "request": {
        "method": "PUT",
        "url": "Immunization/TW00199-covid-2"
      }
    },
    {
      "resource": {
        "resourceType": "Patient",
        "id": "TW00197",
        "identifier": [
          {
            "system": "urn:oid:2.16.886.101.20003.20001",
            "value": "TW00197"
          }
        ],
        "name": [
          {
            "text": "曾志豪",
            "family": "曾",
            "given": [
              "志豪"
            ]
          }
        ],
        "gender": "male",
        "birthDate": "1977-08-21",
        "address": [
          {
            "city": "台南市",
            "country": "TW"
          }
        ]
      },
      "request": {
        "method": "PUT",
        "url": "Patient/TW00197"
      }
    },
    {
      "resource": {
        "resourceType": "Immunization",
        "id": "TW00197-covid-1",
        "status": "completed",
        "vaccineCode": {
          "coding": [
            {
              "system": "http://hl7.org/fhir/sid/cvx",
              "code": "207",
              "display": "COVID-19, mRNA, LNP-S, PF, 100 mcg/0.5 mL dose (Moderna)"
            }
          ],
          "text": "COVID-19 vaccine"
        },
        "patient": {
          "reference": "Patient/TW00197"
        },
        "occurrenceDateTime": "2024-07-22",
        "primarySource": true,
        "lotNumber": "LOT289500",
        "expirationDate": "2026-12-31",
        "site": {
          "coding": [
            {
              "system": "http://terminology.hl7.org/CodeSystem/v3-ActSite",
              "code": "LA",
              "display": "left arm"
            }
          ]
        },
        "route": {
          "coding": [
            {
              "system": "http://terminology.hl7.org/CodeSystem/v3-RouteOfAdministration",
              "code": "IM",
              "display": "Injection, intramuscular"
            }
          ]
        },
        "doseQuantity": {
          "value": 0.5,
          "unit": "mL",
          "system": "http://unitsofmeasure.org",
          "code": "mL"
        },
        "protocolApplied": [
          {
            "doseNumberPositiveInt": 1,
            "seriesDosesPositiveInt": 2
          }
        ]
      },
      "request": {
        "method": "PUT",
        "url": "Immunization/TW00197-covid-1"
      }
    },
    {
      "resource": {
        "resourceType": "Immunization",
        "id": "TW00197-covid-2",
        "status": "completed",
        "vaccineCode": {
          "coding": [
            {
              "system": "http://hl7.org/fhir/sid/cvx",
              "code": "208",
              "display": "COVID-19, mRNA, LNP-S, PF, 30 mcg/0.3 mL dose (Pfizer)"
            }
          ],
          "text": "COVID-19 vaccine"
        },
        "patient": {
          "reference": "Patient/TW00197"
        },
        "occurrenceDateTime": "2025-03-01",
        "primarySource": true,
        "lotNumber": "LOT744401",
        "expirationDate": "2026-12-31",
        "site": {
          "coding": [
            {
              "system": "http://terminology.hl7.org/CodeSystem/v3-ActSite",
              "code": "LA",
              "display": "left arm"
            }
          ]
        },
        "route": {
          "coding": [
            {
              "system": "http://terminology.hl7.org/CodeSystem/v3-RouteOfAdministration",
              "code": "IM",
              "display": "Injection, intramuscular"
            }
          ]
        },
        "doseQuantity": {
          "value": 0.5,
          "unit": "mL",
          "system": "http://unitsofmeasure.org",
          "code": "mL"
        },
        "protocolApplied": [
          {
            "doseNumberPositiveInt": 2,
            "seriesDosesPositiveInt": 2
          }
        ]
      },
      "request": {
        "method": "PUT",
        "url": "Immunization/TW00197-covid-2"
      }
    },
    {
      "resource": {
        "resourceType": "Patient",
        "id": "TW00162",
        "identifier": [
          {
            "system": "urn:oid:2.16.886.101.20003.20001",
            "value": "TW00162"
          }
        ],
        "name": [
          {
            "text": "廖麗華",
            "family": "廖",
            "given": [
              "麗華"
            ]
          }
        ],
        "gender": "female",
        "birthDate": "1989-02-27",
        "address": [
          {
            "city": "台東縣",
            "country": "TW"
          }
        ]
      },
      "request": {
        "method": "PUT",
        "url": "Patient/TW00162"
      }
    },
    {
      "resource": {
        "resourceType": "Immunization",
        "id": "TW00162-covid-1",
        "status": "completed",
        "vaccineCode": {
          "coding": [
            {
              "system": "http://hl7.org/fhir/sid/cvx",
              "code": "208",
              "display": "COVID-19, mRNA, LNP-S, PF, 30 mcg/0.3 mL dose (Pfizer)"
            }
          ],
          "text": "COVID-19 vaccine"
        },
        "patient": {
          "reference": "Patient/TW00162"
        },
        "occurrenceDateTime": "2024-08-22",
        "primarySource": true,
        "lotNumber": "LOT450267",
        "expirationDate": "2026-12-31",
        "site": {
          "coding": [
            {
              "system": "http://terminology.hl7.org/CodeSystem/v3-ActSite",
              "code": "LA",
              "display": "left arm"
            }
          ]
        },
        "route": {
          "coding": [
            {
              "system": "http://terminology.hl7.org/CodeSystem/v3-RouteOfAdministration",
              "code": "IM",
              "display": "Injection, intramuscular"
            }
          ]
        },
        "doseQuantity": {
          "value": 0.5,
          "unit": "mL",
          "system": "http://unitsofmeasure.org",
          "code": "mL"
        },
        "protocolApplied": [
          {
            "doseNumberPositiveInt": 1,
            "seriesDosesPositiveInt": 2
          }
        ]
      },
      "request": {
        "method": "PUT",
        "url": "Immunization/TW00162-covid-1"
      }
    },
    {
      "resource": {
        "resourceType": "Immunization",
        "id": "TW00162-covid-2",
        "status": "completed",
        "vaccineCode": {
          "coding": [
            {
              "system": "http://hl7.org/fhir/sid/cvx",
              "code": "208",
              "display": "COVID-19, mRNA, LNP-S, PF, 30 mcg/0.3 mL dose (Pfizer)"
            }
          ],
          "text": "COVID-19 vaccine"
        },
        "patient": {
          "reference": "Patient/TW00162"
        },
        "occurrenceDateTime": "2024-04-27",
        "primarySource": true,
        "lotNumber": "LOT583811",
        "expirationDate": "2026-12-31",
        "site": {
          "coding": [
            {
              "system": "http://terminology.hl7.org/CodeSystem/v3-ActSite",
              "code": "LA",
              "display": "left arm"
            }
          ]
        },
        "route": {
          "coding": [
            {
              "system": "http://terminology.hl7.org/CodeSystem/v3-RouteOfAdministration",
              "code": "IM",
              "display": "Injection, intramuscular"
            }
          ]
        },
        "doseQuantity": {
          "value": 0.5,
          "unit": "mL",
          "system": "http://unitsofmeasure.org",
          "code": "mL"
        },
        "protocolApplied": [
          {
            "doseNumberPositiveInt": 2,
            "seriesDosesPositiveInt": 2
          }
        ]
      },
      "request": {
        "method": "PUT",
        "url": "Immunization/TW00162-covid-2"
      }
    },
    {
      "resource": {
        "resourceType": "Patient",
        "id": "TW00139",
        "identifier": [
          {
            "system": "urn:oid:2.16.886.101.20003.20001",
            "value": "TW00139"
          }
        ],
        "name": [
          {
            "text": "林冠宇",
            "family": "林",
            "given": [
              "冠宇"
            ]
          }
        ],
        "gender": "male",
        "birthDate": "1957-12-02",
        "address": [
          {
            "city": "金門縣",
            "country": "TW"
          }
        ]
      },
      "request": {
        "method": "PUT",
        "url": "Patient/TW00139"
      }
    },
    {
      "resource": {
        "resourceType": "Immunization",
        "id": "TW00139-covid-1",
        "status": "completed",
        "vaccineCode": {
          "coding": [
            {
              "system": "http://hl7.org/fhir/sid/cvx",
              "code": "208",
              "display": "COVID-19, mRNA, LNP-S, PF, 30 mcg/0.3 mL dose (Pfizer)"
            }
          ],
          "text": "COVID-19 vaccine"
        },
        "patient": {
          "reference": "Patient/TW00139"
        },
        "occurrenceDateTime": "2024-01-24",
        "primarySource": true,
        "lotNumber": "LOT699054",
        "expirationDate": "2026-12-31",
        "site": {
          "coding": [
            {
              "system": "http://terminology.hl7.org/CodeSystem/v3-ActSite",
              "code": "LA",
              "display": "left arm"
            }
          ]
        },
        "route": {
          "coding": [
            {
              "system": "http://terminology.hl7.org/CodeSystem/v3-RouteOfAdministration",
              "code": "IM",
              "display": "Injection, intramuscular"
            }
          ]
        },
        "doseQuantity": {
          "value": 0.5,
          "unit": "mL",
          "system": "http://unitsofmeasure.org",
          "code": "mL"
        },
        "protocolApplied": [
          {
            "doseNumberPositiveInt": 1,
            "seriesDosesPositiveInt": 1
          }
        ]
      },
      "request": {
        "method": "PUT",
        "url": "Immunization/TW00139-covid-1"
      }
    },
    {
      "resource": {
        "resourceType": "Patient",
        "id": "TW00135",
        "identifier": [
          {
            "system": "urn:oid:2.16.886.101.20003.20001",
            "value": "TW00135"
          }
        ],
        "name": [
          {
            "text": "黃怡君",
            "family": "黃",
            "given": [
              "怡君"
            ]
          }
        ],
        "gender": "female",
        "birthDate": "1976-07-19",
        "address": [
          {
            "city": "宜蘭縣",
            "country": "TW"
          }
        ]
      },
      "request": {
        "method": "PUT",
        "url": "Patient/TW00135"
      }
    },
    {
      "resource": {
        "resourceType": "Immunization",
        "id": "TW00135-covid-1",
        "status": "completed",
        "vaccineCode": {
          "coding": [
            {
              "system": "http://hl7.org/fhir/sid/cvx",
              "code": "207",
              "display": "COVID-19, mRNA, LNP-S, PF, 100 mcg/0.5 mL dose (Moderna)"
            }
          ],
          "text": "COVID-19 vaccine"
        },
        "patient": {
          "reference": "Patient/TW00135"
        },
        "occurrenceDateTime": "2024-05-18",
        "primarySource": true,
        "lotNumber": "LOT105335",
        "expirationDate": "2026-12-31",
        "site": {
          "coding": [
            {
              "system": "http://terminology.hl7.org/CodeSystem/v3-ActSite",
              "code": "LA",
              "display": "left arm"
            }
          ]
        },
        "route": {
          "coding": [
            {
              "system": "http://terminology.hl7.org/CodeSystem/v3-RouteOfAdministration",
              "code": "IM",
              "display": "Injection, intramuscular"
            }
          ]
        },
        "doseQuantity": {
          "value": 0.5,
          "unit": "mL",
          "system": "http://unitsofmeasure.org",
          "code": "mL"
        },
        "protocolApplied": [
          {
            "doseNumberPositiveInt": 1,
            "seriesDosesPositiveInt": 1
          }
        ]
      },
      "request": {
        "method": "PUT",
        "url": "Immunization/TW00135-covid-1"
      }
    },
    {
      "resource": {
        "resourceType": "Patient",
        "id": "TW00188",
        "identifier": [
          {
            "system": "urn:oid:2.16.886.101.20003.20001",
            "value": "TW00188"
          }
        ],
        "name": [
          {
            "text": "謝佳穎",
            "family": "謝",
            "given": [
              "佳穎"
            ]
          }
        ],
        "gender": "female",
        "birthDate": "2006-01-19",
        "address": [
          {
            "city": "桃園市",
            "country": "TW"
          }
        ]
      },
      "request": {
        "method": "PUT",
        "url": "Patient/TW00188"
      }
    },
    {
      "resource": {
        "resourceType": "Immunization",
        "id": "TW00188-covid-1",
        "status": "completed",
        "vaccineCode": {
          "coding": [
            {
              "system": "http://hl7.org/fhir/sid/cvx",
              "code": "208",
              "display": "COVID-19, mRNA, LNP-S, PF, 30 mcg/0.3 mL dose (Pfizer)"
            }
          ],
          "text": "COVID-19 vaccine"
        },
        "patient": {
          "reference": "Patient/TW00188"
        },
        "occurrenceDateTime": "2024-12-16",
        "primarySource": true,
        "lotNumber": "LOT648402",
        "expirationDate": "2026-12-31",
        "site": {
          "coding": [
            {
              "system": "http://terminology.hl7.org/CodeSystem/v3-ActSite",
              "code": "LA",
              "display": "left arm"
            }
          ]
        },
        "route": {
          "coding": [
            {
              "system": "http://terminology.hl7.org/CodeSystem/v3-RouteOfAdministration",
              "code": "IM",
              "display": "Injection, intramuscular"
            }
          ]
        },
        "doseQuantity": {
          "value": 0.5,
          "unit": "mL",
          "system": "http://unitsofmeasure.org",
          "code": "mL"
        },
        "protocolApplied": [
          {
            "doseNumberPositiveInt": 1,
            "seriesDosesPositiveInt": 1
          }
        ]
      },
      "request": {
        "method": "PUT",
        "url": "Immunization/TW00188-covid-1"
      }
    },
    {
      "resource": {
        "resourceType": "Patient",
        "id": "TW00190",
        "identifier": [
          {
            "system": "urn:oid:2.16.886.101.20003.20001",
            "value": "TW00190"
          }
        ],
        "name": [
          {
            "text": "謝雅筑",
            "family": "謝",
            "given": [
              "雅筑"
            ]
          }
        ],
        "gender": "female",
        "birthDate": "2006-03-08",
        "address": [
          {
            "city": "台北市",
            "country": "TW"
          }
        ]
      },
      "request": {
        "method": "PUT",
        "url": "Patient/TW00190"
      }
    },
    {
      "resource": {
        "resourceType": "Immunization",
        "id": "TW00190-covid-1",
        "status": "completed",
        "vaccineCode": {
          "coding": [
            {
              "system": "http://hl7.org/fhir/sid/cvx",
              "code": "207",
              "display": "COVID-19, mRNA, LNP-S, PF, 100 mcg/0.5 mL dose (Moderna)"
            }
          ],
          "text": "COVID-19 vaccine"
        },
        "patient": {
          "reference": "Patient/TW00190"
        },
        "occurrenceDateTime": "2024-07-21",
        "primarySource": true,
        "lotNumber": "LOT572645",
        "expirationDate": "2026-12-31",
        "site": {
          "coding": [
            {
              "system": "http://terminology.hl7.org/CodeSystem/v3-ActSite",
              "code": "LA",
              "display": "left arm"
            }
          ]
        },
        "route": {
          "coding": [
            {
              "system": "http://terminology.hl7.org/CodeSystem/v3-RouteOfAdministration",
              "code": "IM",
              "display": "Injection, intramuscular"
            }
          ]
        },
        "doseQuantity": {
          "value": 0.5,
          "unit": "mL",
          "system": "http://unitsofmeasure.org",
          "code": "mL"
        },
        "protocolApplied": [
          {
            "doseNumberPositiveInt": 1,
            "seriesDosesPositiveInt": 3
          }
        ]
      },
      "request": {
        "method": "PUT",
        "url": "Immunization/TW00190-covid-1"
      }
    },
    {
      "resource": {
        "resourceType": "Immunization",
        "id": "TW00190-covid-2",
        "status": "completed",
        "vaccineCode": {
          "coding": [
            {
              "system": "http://hl7.org/fhir/sid/cvx",
              "code": "208",
              "display": "COVID-19, mRNA, LNP-S, PF, 30 mcg/0.3 mL dose (Pfizer)"
            }
          ],
          "text": "COVID-19 vaccine"
        },
        "patient": {
          "reference": "Patient/TW00190"
        },
        "occurrenceDateTime": "2025-01-19",
        "primarySource": true,
        "lotNumber": "LOT668767",
        "expirationDate": "2026-12-31",
        "site": {
          "coding": [
            {
              "system": "http://terminology.hl7.org/CodeSystem/v3-ActSite",
              "code": "LA",
              "display": "left arm"
            }
          ]
        },
        "route": {
          "coding": [
            {
              "system": "http://terminology.hl7.org/CodeSystem/v3-RouteOfAdministration",
              "code": "IM",
              "display": "Injection, intramuscular"
            }
          ]
        },
        "doseQuantity": {
          "value": 0.5,
          "unit": "mL",
          "system": "http://unitsofmeasure.org",
          "code": "mL"
        },
        "protocolApplied": [
          {
            "doseNumberPositiveInt": 2,
            "seriesDosesPositiveInt": 3
          }
        ]
      },
      "request": {
        "method": "PUT",
        "url": "Immunization/TW00190-covid-2"
      }
    },
    {
      "resource": {
        "resourceType": "Immunization",
        "id": "TW00190-covid-3",
        "status": "completed",
        "vaccineCode": {
          "coding": [
            {
              "system": "http://hl7.org/fhir/sid/cvx",
              "code": "208",
              "display": "COVID-19, mRNA, LNP-S, PF, 30 mcg/0.3 mL dose (Pfizer)"
            }
          ],
          "text": "COVID-19 vaccine"
        },
        "patient": {
          "reference": "Patient/TW00190"
        },
        "occurrenceDateTime": "2025-04-11",
        "primarySource": true,
        "lotNumber": "LOT502211",
        "expirationDate": "2026-12-31",
        "site": {
          "coding": [
            {
              "system": "http://terminology.hl7.org/CodeSystem/v3-ActSite",
              "code": "LA",
              "display": "left arm"
            }
          ]
        },
        "route": {
          "coding": [
            {
              "system": "http://terminology.hl7.org/CodeSystem/v3-RouteOfAdministration",
              "code": "IM",
              "display": "Injection, intramuscular"
            }
          ]
        },
        "doseQuantity": {
          "value": 0.5,
          "unit": "mL",
          "system": "http://unitsofmeasure.org",
          "code": "mL"
        },
        "protocolApplied": [
          {
            "doseNumberPositiveInt": 3,
            "seriesDosesPositiveInt": 3
          }
        ]
      },
      "request": {
        "method": "PUT",
        "url": "Immunization/TW00190-covid-3"
      }
    },
    {
      "resource": {
        "resourceType": "Patient",
        "id": "TW00111",
        "identifier": [
          {
            "system": "urn:oid:2.16.886.101.20003.20001",
            "value": "TW00111"
          }
        ],
        "name": [
          {
            "text": "廖俊宇",
            "family": "廖",
            "given": [
              "俊宇"
            ]
          }
        ],
        "gender": "male",
        "birthDate": "1959-02-14",
        "address": [
          {
            "city": "基隆市",
            "country": "TW"
          }
        ]
      },
      "request": {
        "method": "PUT",
        "url": "Patient/TW00111"
      }
    },
    {
      "resource": {
        "resourceType": "Immunization",
        "id": "TW00111-covid-1",
        "status": "completed",
        "vaccineCode": {
          "coding": [
            {
              "system": "http://hl7.org/fhir/sid/cvx",
              "code": "208",
              "display": "COVID-19, mRNA, LNP-S, PF, 30 mcg/0.3 mL dose (Pfizer)"
            }
          ],
          "text": "COVID-19 vaccine"
        },
        "patient": {
          "reference": "Patient/TW00111"
        },
        "occurrenceDateTime": "2024-04-03",
        "primarySource": true,
        "lotNumber": "LOT742195",
        "expirationDate": "2026-12-31",
        "site": {
          "coding": [
            {
              "system": "http://terminology.hl7.org/CodeSystem/v3-ActSite",
              "code": "LA",
              "display": "left arm"
            }
          ]
        },
        "route": {
          "coding": [
            {
              "system": "http://terminology.hl7.org/CodeSystem/v3-RouteOfAdministration",
              "code": "IM",
              "display": "Injection, intramuscular"
            }
          ]
        },
        "doseQuantity": {
          "value": 0.5,
          "unit": "mL",
          "system": "http://unitsofmeasure.org",
          "code": "mL"
        },
        "protocolApplied": [
          {
            "doseNumberPositiveInt": 1,
            "seriesDosesPositiveInt": 2
          }
        ]
      },
      "request": {
        "method": "PUT",
        "url": "Immunization/TW00111-covid-1"
      }
    },
    {
      "resource": {
        "resourceType": "Immunization",
        "id": "TW00111-covid-2",
        "status": "completed",
        "vaccineCode": {
          "coding": [
            {
              "system": "http://hl7.org/fhir/sid/cvx",
              "code": "208",
              "display": "COVID-19, mRNA, LNP-S, PF, 30 mcg/0.3 mL dose (Pfizer)"
            }
          ],
          "text": "COVID-19 vaccine"
        },
        "patient": {
          "reference": "Patient/TW00111"
        },
        "occurrenceDateTime": "2024-12-31",
        "primarySource": true,
        "lotNumber": "LOT732186",
        "expirationDate": "2026-12-31",
        "site": {
          "coding": [
            {
              "system": "http://terminology.hl7.org/CodeSystem/v3-ActSite",
              "code": "LA",
              "display": "left arm"
            }
          ]
        },
        "route": {
          "coding": [
            {
              "system": "http://terminology.hl7.org/CodeSystem/v3-RouteOfAdministration",
              "code": "IM",
              "display": "Injection, intramuscular"
            }
          ]
        },
        "doseQuantity": {
          "value": 0.5,
          "unit": "mL",
          "system": "http://unitsofmeasure.org",
          "code": "mL"
        },
        "protocolApplied": [
          {
            "doseNumberPositiveInt": 2,
            "seriesDosesPositiveInt": 2
          }
        ]
      },
      "request": {
        "method": "PUT",
        "url": "Immunization/TW00111-covid-2"
      }
    },
    {
      "resource": {
        "resourceType": "Patient",
        "id": "TW00126",
        "identifier": [
          {
            "system": "urn:oid:2.16.886.101.20003.20001",
            "value": "TW00126"
          }
        ],
        "name": [
          {
            "text": "陳欣怡",
            "family": "陳",
            "given": [
              "欣怡"
            ]
          }
        ],
        "gender": "female",
        "birthDate": "1945-02-23",
        "address": [
          {
            "city": "連江縣",
            "country": "TW"
          }
        ]
      },
      "request": {
        "method": "PUT",
        "url": "Patient/TW00126"
      }
    },
    {
      "resource": {
        "resourceType": "Immunization",
        "id": "TW00126-covid-1",
        "status": "completed",
        "vaccineCode": {
          "coding": [
            {
              "system": "http://hl7.org/fhir/sid/cvx",
              "code": "207",
              "display": "COVID-19, mRNA, LNP-S, PF, 100 mcg/0.5 mL dose (Moderna)"
            }
          ],
          "text": "COVID-19 vaccine"
        },
        "patient": {
          "reference": "Patient/TW00126"
        },
        "occurrenceDateTime": "2024-06-16",
        "primarySource": true,
        "lotNumber": "LOT200657",
        "expirationDate": "2026-12-31",
        "site": {
          "coding": [
            {
              "system": "http://terminology.hl7.org/CodeSystem/v3-ActSite",
              "code": "LA",
              "display": "left arm"
            }
          ]
        },
        "route": {
          "coding": [
            {
              "system": "http://terminology.hl7.org/CodeSystem/v3-RouteOfAdministration",
              "code": "IM",
              "display": "Injection, intramuscular"
            }
          ]
        },
        "doseQuantity": {
          "value": 0.5,
          "unit": "mL",
          "system": "http://unitsofmeasure.org",
          "code": "mL"
        },
        "protocolApplied": [
          {
            "doseNumberPositiveInt": 1,
            "seriesDosesPositiveInt": 3
          }
        ]
      },
      "request": {
        "method": "PUT",
        "url": "Immunization/TW00126-covid-1"
      }
    },
    {
      "resource": {
        "resourceType": "Immunization",
        "id": "TW00126-covid-2",
        "status": "completed",
        "vaccineCode": {
          "coding": [
            {
              "system": "http://hl7.org/fhir/sid/cvx",
              "code": "208",
              "display": "COVID-19, mRNA, LNP-S, PF, 30 mcg/0.3 mL dose (Pfizer)"
            }
          ],
          "text": "COVID-19 vaccine"
        },
        "patient": {
          "reference": "Patient/TW00126"
        },
        "occurrenceDateTime": "2024-05-13",
        "primarySource": true,
        "lotNumber": "LOT415672",
        "expirationDate": "2026-12-31",
        "site": {
          "coding": [
            {
              "system": "http://terminology.hl7.org/CodeSystem/v3-ActSite",
              "code": "LA",
              "display": "left arm"
            }
          ]
        },
        "route": {
          "coding": [
            {
              "system": "http://terminology.hl7.org/CodeSystem/v3-RouteOfAdministration",
              "code": "IM",
              "display": "Injection, intramuscular"
            }
          ]
        },
        "doseQuantity": {
          "value": 0.5,
          "unit": "mL",
          "system": "http://unitsofmeasure.org",
          "code": "mL"
        },
        "protocolApplied": [
          {
            "doseNumberPositiveInt": 2,
            "seriesDosesPositiveInt": 3
          }
        ]
      },
      "request": {
        "method": "PUT",
        "url": "Immunization/TW00126-covid-2"
      }
    },
    {
      "resource": {
        "resourceType": "Immunization",
        "id": "TW00126-covid-3",
        "status": "completed",
        "vaccineCode": {
          "coding": [
            {
              "system": "http://hl7.org/fhir/sid/cvx",
              "code": "207",
              "display": "COVID-19, mRNA, LNP-S, PF, 100 mcg/0.5 mL dose (Moderna)"
            }
          ],
          "text": "COVID-19 vaccine"
        },
        "patient": {
          "reference": "Patient/TW00126"
        },
        "occurrenceDateTime": "2025-06-14",
        "primarySource": true,
        "lotNumber": "LOT938660",
        "expirationDate": "2026-12-31",
        "site": {
          "coding": [
            {
              "system": "http://terminology.hl7.org/CodeSystem/v3-ActSite",
              "code": "LA",
              "display": "left arm"
            }
          ]
        },
        "route": {
          "coding": [
            {
              "system": "http://terminology.hl7.org/CodeSystem/v3-RouteOfAdministration",
              "code": "IM",
              "display": "Injection, intramuscular"
            }
          ]
        },
        "doseQuantity": {
          "value": 0.5,
          "unit": "mL",
          "system": "http://unitsofmeasure.org",
          "code": "mL"
        },
        "protocolApplied": [
          {
            "doseNumberPositiveInt": 3,
            "seriesDosesPositiveInt": 3
          }
        ]
      },
      "request": {
        "method": "PUT",
        "url": "Immunization/TW00126-covid-3"
      }
    },
    {
      "resource": {
        "resourceType": "Patient",
        "id": "TW00134",
        "identifier": [
          {
            "system": "urn:oid:2.16.886.101.20003.20001",
            "value": "TW00134"
          }
        ],
        "name": [
          {
            "text": "吳冠廷",
            "family": "吳",
            "given": [
              "冠廷"
            ]
          }
        ],
        "gender": "male",
        "birthDate": "1958-05-13",
        "address": [
          {
            "city": "澎湖縣",
            "country": "TW"
          }
        ]
      },
      "request": {
        "method": "PUT",
        "url": "Patient/TW00134"
      }
    },
    {
      "resource": {
        "resourceType": "Immunization",
        "id": "TW00134-covid-1",
        "status": "completed",
        "vaccineCode": {
          "coding": [
            {
              "system": "http://hl7.org/fhir/sid/cvx",
              "code": "208",
              "display": "COVID-19, mRNA, LNP-S, PF, 30 mcg/0.3 mL dose (Pfizer)"
            }
          ],
          "text": "COVID-19 vaccine"
        },
        "patient": {
          "reference": "Patient/TW00134"
        },
        "occurrenceDateTime": "2024-07-02",
        "primarySource": true,
        "lotNumber": "LOT509751",
        "expirationDate": "2026-12-31",
        "site": {
          "coding": [
            {
              "system": "http://terminology.hl7.org/CodeSystem/v3-ActSite",
              "code": "LA",
              "display": "left arm"
            }
          ]
        },
        "route": {
          "coding": [
            {
              "system": "http://terminology.hl7.org/CodeSystem/v3-RouteOfAdministration",
              "code": "IM",
              "display": "Injection, intramuscular"
            }
          ]
        },
        "doseQuantity": {
          "value": 0.5,
          "unit": "mL",
          "system": "http://unitsofmeasure.org",
          "code": "mL"
        },
        "protocolApplied": [
          {
            "doseNumberPositiveInt": 1,
            "seriesDosesPositiveInt": 2
          }
        ]
      },
      "request": {
        "method": "PUT",
        "url": "Immunization/TW00134-covid-1"
      }
    },
    {
      "resource": {
        "resourceType": "Immunization",
        "id": "TW00134-covid-2",
        "status": "completed",
        "vaccineCode": {
          "coding": [
            {
              "system": "http://hl7.org/fhir/sid/cvx",
              "code": "207",
              "display": "COVID-19, mRNA, LNP-S, PF, 100 mcg/0.5 mL dose (Moderna)"
            }
          ],
          "text": "COVID-19 vaccine"
        },
        "patient": {
          "reference": "Patient/TW00134"
        },
        "occurrenceDateTime": "2025-03-09",
        "primarySource": true,
        "lotNumber": "LOT397353",
        "expirationDate": "2026-12-31",
        "site": {
          "coding": [
            {
              "system": "http://terminology.hl7.org/CodeSystem/v3-ActSite",
              "code": "LA",
              "display": "left arm"
            }
          ]
        },
        "route": {
          "coding": [
            {
              "system": "http://terminology.hl7.org/CodeSystem/v3-RouteOfAdministration",
              "code": "IM",
              "display": "Injection, intramuscular"
            }
          ]
        },
        "doseQuantity": {
          "value": 0.5,
          "unit": "mL",
          "system": "http://unitsofmeasure.org",
          "code": "mL"
        },
        "protocolApplied": [
          {
            "doseNumberPositiveInt": 2,
            "seriesDosesPositiveInt": 2
          }
        ]
      },
      "request": {
        "method": "PUT",
        "url": "Immunization/TW00134-covid-2"
      }
    },
    {
      "resource": {
        "resourceType": "Patient",
        "id": "TW00112",
        "identifier": [
          {
            "system": "urn:oid:2.16.886.101.20003.20001",
            "value": "TW00112"
          }
        ],
        "name": [
          {
            "text": "黃宗翰",
            "family": "黃",
            "given": [
              "宗翰"
            ]
          }
        ],
        "gender": "male",
        "birthDate": "1955-05-11",
        "address": [
          {
            "city": "花蓮縣",
            "country": "TW"
          }
        ]
      },
      "request": {
        "method": "PUT",
        "url": "Patient/TW00112"
      }
    },
    {
      "resource": {
        "resourceType": "Immunization",
        "id": "TW00112-covid-1",
        "status": "completed",
        "vaccineCode": {
          "coding": [
            {
              "system": "http://hl7.org/fhir/sid/cvx",
              "code": "208",
              "display": "COVID-19, mRNA, LNP-S, PF, 30 mcg/0.3 mL dose (Pfizer)"
            }
          ],
          "text": "COVID-19 vaccine"
        },
        "patient": {
          "reference": "Patient/TW00112"
        },
        "occurrenceDateTime": "2024-09-03",
        "primarySource": true,
        "lotNumber": "LOT897464",
        "expirationDate": "2026-12-31",
        "site": {
          "coding": [
            {
              "system": "http://terminology.hl7.org/CodeSystem/v3-ActSite",
              "code": "LA",
              "display": "left arm"
            }
          ]
        },
        "route": {
          "coding": [
            {
              "system": "http://terminology.hl7.org/CodeSystem/v3-RouteOfAdministration",
              "code": "IM",
              "display": "Injection, intramuscular"
            }
          ]
        },
        "doseQuantity": {
          "value": 0.5,
          "unit": "mL",
          "system": "http://unitsofmeasure.org",
          "code": "mL"
        },
        "protocolApplied": [
          {
            "doseNumberPositiveInt": 1,
            "seriesDosesPositiveInt": 2
          }
        ]
      },
      "request": {
        "method": "PUT",
        "url": "Immunization/TW00112-covid-1"
      }
    },
    {
      "resource": {
        "resourceType": "Immunization",
        "id": "TW00112-covid-2",
        "status": "completed",
        "vaccineCode": {
          "coding": [
            {
              "system": "http://hl7.org/fhir/sid/cvx",
              "code": "208",
              "display": "COVID-19, mRNA, LNP-S, PF, 30 mcg/0.3 mL dose (Pfizer)"
            }
          ],
          "text": "COVID-19 vaccine"
        },
        "patient": {
          "reference": "Patient/TW00112"
        },
        "occurrenceDateTime": "2024-04-28",
        "primarySource": true,
        "lotNumber": "LOT833040",
        "expirationDate": "2026-12-31",
        "site": {
          "coding": [
            {
              "system": "http://terminology.hl7.org/CodeSystem/v3-ActSite",
              "code": "LA",
              "display": "left arm"
            }
          ]
        },
        "route": {
          "coding": [
            {
              "system": "http://terminology.hl7.org/CodeSystem/v3-RouteOfAdministration",
              "code": "IM",
              "display": "Injection, intramuscular"
            }
          ]
        },
        "doseQuantity": {
          "value": 0.5,
          "unit": "mL",
          "system": "http://unitsofmeasure.org",
          "code": "mL"
        },
        "protocolApplied": [
          {
            "doseNumberPositiveInt": 2,
            "seriesDosesPositiveInt": 2
          }
        ]
      },
      "request": {
        "method": "PUT",
        "url": "Immunization/TW00112-covid-2"
      }
    },
    {
      "resource": {
        "resourceType": "Patient",
        "id": "TW00153",
        "identifier": [
          {
            "system": "urn:oid:2.16.886.101.20003.20001",
            "value": "TW00153"
          }
        ],
        "name": [
          {
            "text": "郭怡君",
            "family": "郭",
            "given": [
              "怡君"
            ]
          }
        ],
        "gender": "female",
        "birthDate": "1946-08-15",
        "address": [
          {
            "city": "嘉義縣",
            "country": "TW"
          }
        ]
      },
      "request": {
        "method": "PUT",
        "url": "Patient/TW00153"
      }
    },
    {
      "resource": {
        "resourceType": "Immunization",
        "id": "TW00153-covid-1",
        "status": "completed",
        "vaccineCode": {
          "coding": [
            {
              "system": "http://hl7.org/fhir/sid/cvx",
              "code": "208",
              "display": "COVID-19, mRNA, LNP-S, PF, 30 mcg/0.3 mL dose (Pfizer)"
            }
          ],
          "text": "COVID-19 vaccine"
        },
        "patient": {
          "reference": "Patient/TW00153"
        },
        "occurrenceDateTime": "2024-10-08",
        "primarySource": true,
        "lotNumber": "LOT426476",
        "expirationDate": "2026-12-31",
        "site": {
          "coding": [
            {
              "system": "http://terminology.hl7.org/CodeSystem/v3-ActSite",
              "code": "LA",
              "display": "left arm"
            }
          ]
        },
        "route": {
          "coding": [
            {
              "system": "http://terminology.hl7.org/CodeSystem/v3-RouteOfAdministration",
              "code": "IM",
              "display": "Injection, intramuscular"
            }
          ]
        },
        "doseQuantity": {
          "value": 0.5,
          "unit": "mL",
          "system": "http://unitsofmeasure.org",
          "code": "mL"
        },
        "protocolApplied": [
          {
            "doseNumberPositiveInt": 1,
            "seriesDosesPositiveInt": 2
          }
        ]
      },
      "request": {
        "method": "PUT",
        "url": "Immunization/TW00153-covid-1"
      }
    },
    {
      "resource": {
        "resourceType": "Immunization",
        "id": "TW00153-covid-2",
        "status": "completed",
        "vaccineCode": {
          "coding": [
            {
              "system": "http://hl7.org/fhir/sid/cvx",
              "code": "208",
              "display": "COVID-19, mRNA, LNP-S, PF, 30 mcg/0.3 mL dose (Pfizer)"
            }
          ],
          "text": "COVID-19 vaccine"
        },
        "patient": {
          "reference": "Patient/TW00153"
        },
        "occurrenceDateTime": "2024-08-17",
        "primarySource": true,
        "lotNumber": "LOT787573",
        "expirationDate": "2026-12-31",
        "site": {
          "coding": [
            {
              "system": "http://terminology.hl7.org/CodeSystem/v3-ActSite",
              "code": "LA",
              "display": "left arm"
            }
          ]
        },
        "route": {
          "coding": [
            {
              "system": "http://terminology.hl7.org/CodeSystem/v3-RouteOfAdministration",
              "code": "IM",
              "display": "Injection, intramuscular"
            }
          ]
        },
        "doseQuantity": {
          "value": 0.5,
          "unit": "mL",
          "system": "http://unitsofmeasure.org",
          "code": "mL"
        },
        "protocolApplied": [
          {
            "doseNumberPositiveInt": 2,
            "seriesDosesPositiveInt": 2
          }
        ]
      },
      "request": {
        "method": "PUT",
        "url": "Immunization/TW00153-covid-2"
      }
    },
    {
      "resource": {
        "resourceType": "Patient",
        "id": "TW00167",
        "identifier": [
          {
            "system": "urn:oid:2.16.886.101.20003.20001",
            "value": "TW00167"
          }
        ],
        "name": [
          {
            "text": "劉美惠",
            "family": "劉",
            "given": [
              "美惠"
            ]
          }
        ],
        "gender": "female",
        "birthDate": "1980-03-01",
        "address": [
          {
            "city": "台南市",
            "country": "TW"
          }
        ]
      },
      "request": {
        "method": "PUT",
        "url": "Patient/TW00167"
      }
    },
    {
      "resource": {
        "resourceType": "Immunization",
        "id": "TW00167-covid-1",
        "status": "completed",
        "vaccineCode": {
          "coding": [
            {
              "system": "http://hl7.org/fhir/sid/cvx",
              "code": "208",
              "display": "COVID-19, mRNA, LNP-S, PF, 30 mcg/0.3 mL dose (Pfizer)"
            }
          ],
          "text": "COVID-19 vaccine"
        },
        "patient": {
          "reference": "Patient/TW00167"
        },
        "occurrenceDateTime": "2024-11-02",
        "primarySource": true,
        "lotNumber": "LOT585683",
        "expirationDate": "2026-12-31",
        "site": {
          "coding": [
            {
              "system": "http://terminology.hl7.org/CodeSystem/v3-ActSite",
              "code": "LA",
              "display": "left arm"
            }
          ]
        },
        "route": {
          "coding": [
            {
              "system": "http://terminology.hl7.org/CodeSystem/v3-RouteOfAdministration",
              "code": "IM",
              "display": "Injection, intramuscular"
            }
          ]
        },
        "doseQuantity": {
          "value": 0.5,
          "unit": "mL",
          "system": "http://unitsofmeasure.org",
          "code": "mL"
        },
        "protocolApplied": [
          {
            "doseNumberPositiveInt": 1,
            "seriesDosesPositiveInt": 2
          }
        ]
      },
      "request": {
        "method": "PUT",
        "url": "Immunization/TW00167-covid-1"
      }
    },
    {
      "resource": {
        "resourceType": "Immunization",
        "id": "TW00167-covid-2",
        "status": "completed",
        "vaccineCode": {
          "coding": [
            {
              "system": "http://hl7.org/fhir/sid/cvx",
              "code": "207",
              "display": "COVID-19, mRNA, LNP-S, PF, 100 mcg/0.5 mL dose (Moderna)"
            }
          ],
          "text": "COVID-19 vaccine"
        },
        "patient": {
          "reference": "Patient/TW00167"
        },
        "occurrenceDateTime": "2024-05-19",
        "primarySource": true,
        "lotNumber": "LOT195885",
        "expirationDate": "2026-12-31",
        "site": {
          "coding": [
            {
              "system": "http://terminology.hl7.org/CodeSystem/v3-ActSite",
              "code": "LA",
              "display": "left arm"
            }
          ]
        },
        "route": {
          "coding": [
            {
              "system": "http://terminology.hl7.org/CodeSystem/v3-RouteOfAdministration",
              "code": "IM",
              "display": "Injection, intramuscular"
            }
          ]
        },
        "doseQuantity": {
          "value": 0.5,
          "unit": "mL",
          "system": "http://unitsofmeasure.org",
          "code": "mL"
        },
        "protocolApplied": [
          {
            "doseNumberPositiveInt": 2,
            "seriesDosesPositiveInt": 2
          }
        ]
      },
      "request": {
        "method": "PUT",
        "url": "Immunization/TW00167-covid-2"
      }
    },
    {
      "resource": {
        "resourceType": "Patient",
        "id": "TW00183",
        "identifier": [
          {
            "system": "urn:oid:2.16.886.101.20003.20001",
            "value": "TW00183"
          }
        ],
        "name": [
          {
            "text": "李淑娟",
            "family": "李",
            "given": [
              "淑娟"
            ]
          }
        ],
        "gender": "female",
        "birthDate": "1954-07-15",
        "address": [
          {
            "city": "新竹縣",
            "country": "TW"
          }
        ]
      },
      "request": {
        "method": "PUT",
        "url": "Patient/TW00183"
      }
    },
    {
      "resource": {
        "resourceType": "Immunization",
        "id": "TW00183-covid-1",
        "status": "completed",
        "vaccineCode": {
          "coding": [
            {
              "system": "http://hl7.org/fhir/sid/cvx",
              "code": "208",
              "display": "COVID-19, mRNA, LNP-S, PF, 30 mcg/0.3 mL dose (Pfizer)"
            }
          ],
          "text": "COVID-19 vaccine"
        },
        "patient": {
          "reference": "Patient/TW00183"
        },
        "occurrenceDateTime": "2024-04-12",
        "primarySource": true,
        "lotNumber": "LOT127170",
        "expirationDate": "2026-12-31",
        "site": {
          "coding": [
            {
              "system": "http://terminology.hl7.org/CodeSystem/v3-ActSite",
              "code": "LA",
              "display": "left arm"
            }
          ]
        },
        "route": {
          "coding": [
            {
              "system": "http://terminology.hl7.org/CodeSystem/v3-RouteOfAdministration",
              "code": "IM",
              "display": "Injection, intramuscular"
            }
          ]
        },
        "doseQuantity": {
          "value": 0.5,
          "unit": "mL",
          "system": "http://unitsofmeasure.org",
          "code": "mL"
        },
        "protocolApplied": [
          {
            "doseNumberPositiveInt": 1,
            "seriesDosesPositiveInt": 3
          }
        ]
      },
      "request": {
        "method": "PUT",
        "url": "Immunization/TW00183-covid-1"
      }
    },
    {
      "resource": {
        "resourceType": "Immunization",
        "id": "TW00183-covid-2",
        "status": "completed",
        "vaccineCode": {
          "coding": [
            {
              "system": "http://hl7.org/fhir/sid/cvx",
              "code": "208",
              "display": "COVID-19, mRNA, LNP-S, PF, 30 mcg/0.3 mL dose (Pfizer)"
            }
          ],
          "text": "COVID-19 vaccine"
        },
        "patient": {
          "reference": "Patient/TW00183"
        },
        "occurrenceDateTime": "2024-11-02",
        "primarySource": true,
        "lotNumber": "LOT310096",
        "expirationDate": "2026-12-31",
        "site": {
          "coding": [
            {
              "system": "http://terminology.hl7.org/CodeSystem/v3-ActSite",
              "code": "LA",
              "display": "left arm"
            }
          ]
        },
        "route": {
          "coding": [
            {
              "system": "http://terminology.hl7.org/CodeSystem/v3-RouteOfAdministration",
              "code": "IM",
              "display": "Injection, intramuscular"
            }
          ]
        },
        "doseQuantity": {
          "value": 0.5,
          "unit": "mL",
          "system": "http://unitsofmeasure.org",
          "code": "mL"
        },
        "protocolApplied": [
          {
            "doseNumberPositiveInt": 2,
            "seriesDosesPositiveInt": 3
          }
        ]
      },
      "request": {
        "method": "PUT",
        "url": "Immunization/TW00183-covid-2"
      }
    },
    {
      "resource": {
        "resourceType": "Immunization",
        "id": "TW00183-covid-3",
        "status": "completed",
        "vaccineCode": {
          "coding": [
            {
              "system": "http://hl7.org/fhir/sid/cvx",
              "code": "207",
              "display": "COVID-19, mRNA, LNP-S, PF, 100 mcg/0.5 mL dose (Moderna)"
            }
          ],
          "text": "COVID-19 vaccine"
        },
        "patient": {
          "reference": "Patient/TW00183"
        },
        "occurrenceDateTime": "2024-11-09",
        "primarySource": true,
        "lotNumber": "LOT174976",
        "expirationDate": "2026-12-31",
        "site": {
          "coding": [
            {
              "system": "http://terminology.hl7.org/CodeSystem/v3-ActSite",
              "code": "LA",
              "display": "left arm"
            }
          ]
        },
        "route": {
          "coding": [
            {
              "system": "http://terminology.hl7.org/CodeSystem/v3-RouteOfAdministration",
              "code": "IM",
              "display": "Injection, intramuscular"
            }
          ]
        },
        "doseQuantity": {
          "value": 0.5,
          "unit": "mL",
          "system": "http://unitsofmeasure.org",
          "code": "mL"
        },
        "protocolApplied": [
          {
            "doseNumberPositiveInt": 3,
            "seriesDosesPositiveInt": 3
          }
        ]
      },
      "request": {
        "method": "PUT",
        "url": "Immunization/TW00183-covid-3"
      }
    },
    {
      "resource": {
        "resourceType": "Patient",
        "id": "TW00157",
        "identifier": [
          {
            "system": "urn:oid:2.16.886.101.20003.20001",
            "value": "TW00157"
          }
        ],
        "name": [
          {
            "text": "徐明哲",
            "family": "徐",
            "given": [
              "明哲"
            ]
          }
        ],
        "gender": "male",
        "birthDate": "1979-08-18",
        "address": [
          {
            "city": "澎湖縣",
            "country": "TW"
          }
        ]
      },
      "request": {
        "method": "PUT",
        "url": "Patient/TW00157"
      }
    },
    {
      "resource": {
        "resourceType": "Immunization",
        "id": "TW00157-covid-1",
        "status": "completed",
        "vaccineCode": {
          "coding": [
            {
              "system": "http://hl7.org/fhir/sid/cvx",
              "code": "207",
              "display": "COVID-19, mRNA, LNP-S, PF, 100 mcg/0.5 mL dose (Moderna)"
            }
          ],
          "text": "COVID-19 vaccine"
        },
        "patient": {
          "reference": "Patient/TW00157"
        },
        "occurrenceDateTime": "2024-12-18",
        "primarySource": true,
        "lotNumber": "LOT358589",
        "expirationDate": "2026-12-31",
        "site": {
          "coding": [
            {
              "system": "http://terminology.hl7.org/CodeSystem/v3-ActSite",
              "code": "LA",
              "display": "left arm"
            }
          ]
        },
        "route": {
          "coding": [
            {
              "system": "http://terminology.hl7.org/CodeSystem/v3-RouteOfAdministration",
              "code": "IM",
              "display": "Injection, intramuscular"
            }
          ]
        },
        "doseQuantity": {
          "value": 0.5,
          "unit": "mL",
          "system": "http://unitsofmeasure.org",
          "code": "mL"
        },
        "protocolApplied": [
          {
            "doseNumberPositiveInt": 1,
            "seriesDosesPositiveInt": 3
          }
        ]
      },
      "request": {
        "method": "PUT",
        "url": "Immunization/TW00157-covid-1"
      }
    },
    {
      "resource": {
        "resourceType": "Immunization",
        "id": "TW00157-covid-2",
        "status": "completed",
        "vaccineCode": {
          "coding": [
            {
              "system": "http://hl7.org/fhir/sid/cvx",
              "code": "208",
              "display": "COVID-19, mRNA, LNP-S, PF, 30 mcg/0.3 mL dose (Pfizer)"
            }
          ],
          "text": "COVID-19 vaccine"
        },
        "patient": {
          "reference": "Patient/TW00157"
        },
        "occurrenceDateTime": "2025-02-28",
        "primarySource": true,
        "lotNumber": "LOT863598",
        "expirationDate": "2026-12-31",
        "site": {
          "coding": [
            {
              "system": "http://terminology.hl7.org/CodeSystem/v3-ActSite",
              "code": "LA",
              "display": "left arm"
            }
          ]
        },
        "route": {
          "coding": [
            {
              "system": "http://terminology.hl7.org/CodeSystem/v3-RouteOfAdministration",
              "code": "IM",
              "display": "Injection, intramuscular"
            }
          ]
        },
        "doseQuantity": {
          "value": 0.5,
          "unit": "mL",
          "system": "http://unitsofmeasure.org",
          "code": "mL"
        },
        "protocolApplied": [
          {
            "doseNumberPositiveInt": 2,
            "seriesDosesPositiveInt": 3
          }
        ]
      },
      "request": {
        "method": "PUT",
        "url": "Immunization/TW00157-covid-2"
      }
    },
    {
      "resource": {
        "resourceType": "Immunization",
        "id": "TW00157-covid-3",
        "status": "completed",
        "vaccineCode": {
          "coding": [
            {
              "system": "http://hl7.org/fhir/sid/cvx",
              "code": "208",
              "display": "COVID-19, mRNA, LNP-S, PF, 30 mcg/0.3 mL dose (Pfizer)"
            }
          ],
          "text": "COVID-19 vaccine"
        },
        "patient": {
          "reference": "Patient/TW00157"
        },
        "occurrenceDateTime": "2024-09-24",
        "primarySource": true,
        "lotNumber": "LOT537484",
        "expirationDate": "2026-12-31",
        "site": {
          "coding": [
            {
              "system": "http://terminology.hl7.org/CodeSystem/v3-ActSite",
              "code": "LA",
              "display": "left arm"
            }
          ]
        },
        "route": {
          "coding": [
            {
              "system": "http://terminology.hl7.org/CodeSystem/v3-RouteOfAdministration",
              "code": "IM",
              "display": "Injection, intramuscular"
            }
          ]
        },
        "doseQuantity": {
          "value": 0.5,
          "unit": "mL",
          "system": "http://unitsofmeasure.org",
          "code": "mL"
        },
        "protocolApplied": [
          {
            "doseNumberPositiveInt": 3,
            "seriesDosesPositiveInt": 3
          }
        ]
      },
      "request": {
        "method": "PUT",
        "url": "Immunization/TW00157-covid-3"
      }
    },
    {
      "resource": {
        "resourceType": "Patient",
        "id": "TW00163",
        "identifier": [
          {
            "system": "urn:oid:2.16.886.101.20003.20001",
            "value": "TW00163"
          }
        ],
        "name": [
          {
            "text": "賴建宏",
            "family": "賴",
            "given": [
              "建宏"
            ]
          }
        ],
        "gender": "male",
        "birthDate": "1969-02-09",
        "address": [
          {
            "city": "屏東縣",
            "country": "TW"
          }
        ]
      },
      "request": {
        "method": "PUT",
        "url": "Patient/TW00163"
      }
    },
    {
      "resource": {
        "resourceType": "Immunization",
        "id": "TW00163-covid-1",
        "status": "completed",
        "vaccineCode": {
          "coding": [
            {
              "system": "http://hl7.org/fhir/sid/cvx",
              "code": "208",
              "display": "COVID-19, mRNA, LNP-S, PF, 30 mcg/0.3 mL dose (Pfizer)"
            }
          ],
          "text": "COVID-19 vaccine"
        },
        "patient": {
          "reference": "Patient/TW00163"
        },
        "occurrenceDateTime": "2024-11-09",
        "primarySource": true,
        "lotNumber": "LOT941970",
        "expirationDate": "2026-12-31",
        "site": {
          "coding": [
            {
              "system": "http://terminology.hl7.org/CodeSystem/v3-ActSite",
              "code": "LA",
              "display": "left arm"
            }
          ]
        },
        "route": {
          "coding": [
            {
              "system": "http://terminology.hl7.org/CodeSystem/v3-RouteOfAdministration",
              "code": "IM",
              "display": "Injection, intramuscular"
            }
          ]
        },
        "doseQuantity": {
          "value": 0.5,
          "unit": "mL",
          "system": "http://unitsofmeasure.org",
          "code": "mL"
        },
        "protocolApplied": [
          {
            "doseNumberPositiveInt": 1,
            "seriesDosesPositiveInt": 1
          }
        ]
      },
      "request": {
        "method": "PUT",
        "url": "Immunization/TW00163-covid-1"
      }
    }
  ]
}