{
  "resourceType": "Bundle",
  "type": "transaction",
  "entry": [
    {
      "fullUrl": "https://emr-smart.appx.com.tw/v/r4/fhir/Patient/TW00250",
      "resource": {
        "resourceType": "Patient",
        "id": "TW00250",
        "identifier": [
          {
            "system": "http://hospital.example.org/patients",
            "value": "TW00250"
          }
        ],
        "name": [
          {
            "family": "賴",
            "given": [
              "家豪"
            ],
            "text": "賴家豪"
          }
        ],
        "gender": "male",
        "birthDate": "1988-10-04",
        "address": [
          {
            "city": "雲林縣",
            "country": "TW"
          }
        ]
      },
      "request": {
        "method": "PUT",
        "url": "Patient/TW00250"
      }
    },
    {
      "fullUrl": "https://emr-smart.appx.com.tw/v/r4/fhir/Encounter/TW00250-enc",
      "resource": {
        "resourceType": "Encounter",
        "id": "TW00250-enc",
        "status": "finished",
        "class": {
          "system": "http://terminology.hl7.org/CodeSystem/v3-ActCode",
          "code": "IMP",
          "display": "inpatient encounter"
        },
        "type": [
          {
            "coding": [
              {
                "system": "http://hospital.example.org/ward-types",
                "code": "Internal Medicine",
                "display": "內科病房"
              }
            ],
            "text": "內科病房"
          }
        ],
        "subject": {
          "reference": "Patient/TW00250"
        },
        "period": {
          "start": "2025-11-18T08:00:00+08:00",
          "end": "2025-11-23T10:00:00+08:00"
        },
        "hospitalization": {
          "admitSource": {
            "coding": [
              {
                "system": "http://terminology.hl7.org/CodeSystem/admit-source",
                "code": "emd",
                "display": "From accident/emergency department"
              }
            ]
          }
        }
      },
      "request": {
        "method": "PUT",
        "url": "Encounter/TW00250-enc"
      }
    },
    {
      "fullUrl": "https://emr-smart.appx.com.tw/v/r4/fhir/Observation/TW00250-waste-general",
      "resource": {
        "resourceType": "Observation",
        "id": "TW00250-waste-general",
        "status": "final",
        "category": [
          {
            "coding": [
              {
                "system": "http://terminology.hl7.org/CodeSystem/observation-category",
                "code": "environmental",
                "display": "Environmental"
              }
            ]
          }
        ],
        "code": {
          "coding": [
            {
              "system": "http://hospital.example.org/waste-types",
              "code": "general-waste",
              "display": "General Waste"
            }
          ],
          "text": "一般廢棄物"
        },
        "subject": {
          "reference": "Patient/TW00250"
        },
        "encounter": {
          "reference": "Encounter/TW00250-enc"
        },
        "effectiveDateTime": "2025-11-23T12:00:00+08:00",
        "issued": "2025-11-23T12:00:00+08:00",
        "valueQuantity": {
          "value": 7.5,
          "unit": "kg",
          "system": "http://unitsofmeasure.org",
          "code": "kg"
        },
        "note": [
          {
            "text": "住院 5 天產生的一般廢棄物總量"
          }
        ]
      },
      "request": {
        "method": "PUT",
        "url": "Observation/TW00250-waste-general"
      }
    },
    {
      "fullUrl": "https://emr-smart.appx.com.tw/v/r4/fhir/Observation/TW00250-waste-infectious",
      "resource": {
        "resourceType": "Observation",
        "id": "TW00250-waste-infectious",
        "status": "final",
        "category": [
          {
            "coding": [
              {
                "system": "http://terminology.hl7.org/CodeSystem/observation-category",
                "code": "environmental",
                "display": "Environmental"
              }
            ]
          }
        ],
        "code": {
          "coding": [
            {
              "system": "http://hospital.example.org/waste-types",
              "code": "infectious-waste",
              "display": "Infectious Waste"
            }
          ],
          "text": "感染性廢棄物"
        },
        "subject": {
          "reference": "Patient/TW00250"
        },
        "encounter": {
          "reference": "Encounter/TW00250-enc"
        },
        "effectiveDateTime": "2025-11-23T12:00:00+08:00",
        "issued": "2025-11-23T12:00:00+08:00",
        "valueQuantity": {
          "value": 4.0,
          "unit": "kg",
          "system": "http://unitsofmeasure.org",
          "code": "kg"
        },
        "note": [
          {
            "text": "住院 5 天產生的感染性廢棄物總量"
          }
        ]
      },
      "request": {
        "method": "PUT",
        "url": "Observation/TW00250-waste-infectious"
      }
    },
    {
      "fullUrl": "https://emr-smart.appx.com.tw/v/r4/fhir/Observation/TW00250-waste-recyclable",
      "resource": {
        "resourceType": "Observation",
        "id": "TW00250-waste-recyclable",
        "status": "final",
        "category": [
          {
            "coding": [
              {
                "system": "http://terminology.hl7.org/CodeSystem/observation-category",
                "code": "environmental",
                "display": "Environmental"
              }
            ]
          }
        ],
        "code": {
          "coding": [
            {
              "system": "http://hospital.example.org/waste-types",
              "code": "recyclable-waste",
              "display": "Recyclable Waste"
            }
          ],
          "text": "可回收廢棄物"
        },
        "subject": {
          "reference": "Patient/TW00250"
        },
        "encounter": {
          "reference": "Encounter/TW00250-enc"
        },
        "effectiveDateTime": "2025-11-23T12:00:00+08:00",
        "issued": "2025-11-23T12:00:00+08:00",
        "valueQuantity": {
          "value": 1.0,
          "unit": "kg",
          "system": "http://unitsofmeasure.org",
          "code": "kg"
        },
        "note": [
          {
            "text": "住院 5 天產生的可回收廢棄物總量"
          }
        ]
      },
      "request": {
        "method": "PUT",
        "url": "Observation/TW00250-waste-recyclable"
      }
    },
    {
      "fullUrl": "https://emr-smart.appx.com.tw/v/r4/fhir/Patient/TW00251",
      "resource": {
        "resourceType": "Patient",
        "id": "TW00251",
        "identifier": [
          {
            "system": "http://hospital.example.org/patients",
            "value": "TW00251"
          }
        ],
        "name": [
          {
            "family": "賴",
            "given": [
              "彥廷"
            ],
            "text": "賴彥廷"
          }
        ],
        "gender": "male",
        "birthDate": "1981-10-24",
        "address": [
          {
            "city": "台南市",
            "country": "TW"
          }
        ]
      },
      "request": {
        "method": "PUT",
        "url": "Patient/TW00251"
      }
    },
    {
      "fullUrl": "https://emr-smart.appx.com.tw/v/r4/fhir/Encounter/TW00251-enc",
      "resource": {
        "resourceType": "Encounter",
        "id": "TW00251-enc",
        "status": "finished",
        "class": {
          "system": "http://terminology.hl7.org/CodeSystem/v3-ActCode",
          "code": "IMP",
          "display": "inpatient encounter"
        },
        "type": [
          {
            "coding": [
              {
                "system": "http://hospital.example.org/ward-types",
                "code": "Internal Medicine",
                "display": "內科病房"
              }
            ],
            "text": "內科病房"
          }
        ],
        "subject": {
          "reference": "Patient/TW00251"
        },
        "period": {
          "start": "2025-11-17T08:00:00+08:00",
          "end": "2025-11-22T10:00:00+08:00"
        },
        "hospitalization": {
          "admitSource": {
            "coding": [
              {
                "system": "http://terminology.hl7.org/CodeSystem/admit-source",
                "code": "emd",
                "display": "From accident/emergency department"
              }
            ]
          }
        }
      },
      "request": {
        "method": "PUT",
        "url": "Encounter/TW00251-enc"
      }
    },
    {
      "fullUrl": "https://emr-smart.appx.com.tw/v/r4/fhir/Observation/TW00251-waste-general",
      "resource": {
        "resourceType": "Observation",
        "id": "TW00251-waste-general",
        "status": "final",
        "category": [
          {
            "coding": [
              {
                "system": "http://terminology.hl7.org/CodeSystem/observation-category",
                "code": "environmental",
                "display": "Environmental"
              }
            ]
          }
        ],
        "code": {
          "coding": [
            {
              "system": "http://hospital.example.org/waste-types",
              "code": "general-waste",
              "display": "General Waste"
            }
          ],
          "text": "一般廢棄物"
        },
        "subject": {
          "reference": "Patient/TW00251"
        },
        "encounter": {
          "reference": "Encounter/TW00251-enc"
        },
        "effectiveDateTime": "2025-11-27T12:00:00+08:00",
        "issued": "2025-11-27T12:00:00+08:00",
        "valueQuantity": {
          "value": 7.5,
          "unit": "kg",
          "system": "http://unitsofmeasure.org",
          "code": "kg"
        },
        "note": [
          {
            "text": "住院 5 天產生的一般廢棄物總量"
          }
        ]
      },
      "request": {
        "method": "PUT",
        "url": "Observation/TW00251-waste-general"
      }
    },
    {
      "fullUrl": "https://emr-smart.appx.com.tw/v/r4/fhir/Observation/TW00251-waste-infectious",
      "resource": {
        "resourceType": "Observation",
        "id": "TW00251-waste-infectious",
        "status": "final",
        "category": [
          {
            "coding": [
              {
                "system": "http://terminology.hl7.org/CodeSystem/observation-category",
                "code": "environmental",
                "display": "Environmental"
              }
            ]
          }
        ],
        "code": {
          "coding": [
            {
              "system": "http://hospital.example.org/waste-types",
              "code": "infectious-waste",
              "display": "Infectious Waste"
            }
          ],
          "text": "感染性廢棄物"
        },
        "subject": {
          "reference": "Patient/TW00251"
        },
        "encounter": {
          "reference": "Encounter/TW00251-enc"
        },
        "effectiveDateTime": "2025-11-27T12:00:00+08:00",
        "issued": "2025-11-27T12:00:00+08:00",
        "valueQuantity": {
          "value": 4.0,
          "unit": "kg",
          "system": "http://unitsofmeasure.org",
          "code": "kg"
        },
        "note": [
          {
            "text": "住院 5 天產生的感染性廢棄物總量"
          }
        ]
      },
      "request": {
        "method": "PUT",
        "url": "Observation/TW00251-waste-infectious"
      }
    },
    {
      "fullUrl": "https://emr-smart.appx.com.tw/v/r4/fhir/Observation/TW00251-waste-recyclable",
      "resource": {
        "resourceType": "Observation",
        "id": "TW00251-waste-recyclable",
        "status": "final",
        "category": [
          {
            "coding": [
              {
                "system": "http://terminology.hl7.org/CodeSystem/observation-category",
                "code": "environmental",
                "display": "Environmental"
              }
            ]
          }
        ],
        "code": {
          "coding": [
            {
              "system": "http://hospital.example.org/waste-types",
              "code": "recyclable-waste",
              "display": "Recyclable Waste"
            }
          ],
          "text": "可回收廢棄物"
        },
        "subject": {
          "reference": "Patient/TW00251"
        },
        "encounter": {
          "reference": "Encounter/TW00251-enc"
        },
        "effectiveDateTime": "2025-11-27T12:00:00+08:00",
        "issued": "2025-11-27T12:00:00+08:00",
        "valueQuantity": {
          "value": 1.0,
          "unit": "kg",
          "system": "http://unitsofmeasure.org",
          "code": "kg"
        },
        "note": [
          {
            "text": "住院 5 天產生的可回收廢棄物總量"
          }
        ]
      },
      "request": {
        "method": "PUT",
        "url": "Observation/TW00251-waste-recyclable"
      }
    },
    {
      "fullUrl": "https://emr-smart.appx.com.tw/v/r4/fhir/Patient/TW00252",
      "resource": {
        "resourceType": "Patient",
        "id": "TW00252",
        "identifier": [
          {
            "system": "http://hospital.example.org/patients",
            "value": "TW00252"
          }
        ],
        "name": [
          {
            "family": "廖",
            "given": [
              "詩涵"
            ],
            "text": "廖詩涵"
          }
        ],
        "gender": "female",
        "birthDate": "1956-02-05",
        "address": [
          {
            "city": "苗栗縣",
            "country": "TW"
          }
        ]
      },
      "request": {
        "method": "PUT",
        "url": "Patient/TW00252"
      }
    },
    {
      "fullUrl": "https://emr-smart.appx.com.tw/v/r4/fhir/Encounter/TW00252-enc",
      "resource": {
        "resourceType": "Encounter",
        "id": "TW00252-enc",
        "status": "finished",
        "class": {
          "system": "http://terminology.hl7.org/CodeSystem/v3-ActCode",
          "code": "IMP",
          "display": "inpatient encounter"
        },
        "type": [
          {
            "coding": [
              {
                "system": "http://hospital.example.org/ward-types",
                "code": "Internal Medicine",
                "display": "內科病房"
              }
            ],
            "text": "內科病房"
          }
        ],
        "subject": {
          "reference": "Patient/TW00252"
        },
        "period": {
          "start": "2025-11-03T08:00:00+08:00",
          "end": "2025-11-07T10:00:00+08:00"
        },
        "hospitalization": {
          "admitSource": {
            "coding": [
              {
                "system": "http://terminology.hl7.org/CodeSystem/admit-source",
                "code": "emd",
                "display": "From accident/emergency department"
              }
            ]
          }
        }
      },
      "request": {
        "method": "PUT",
        "url": "Encounter/TW00252-enc"
      }
    },
    {
      "fullUrl": "https://emr-smart.appx.com.tw/v/r4/fhir/Observation/TW00252-waste-general",
      "resource": {
        "resourceType": "Observation",
        "id": "TW00252-waste-general",
        "status": "final",
        "category": [
          {
            "coding": [
              {
                "system": "http://terminology.hl7.org/CodeSystem/observation-category",
                "code": "environmental",
                "display": "Environmental"
              }
            ]
          }
        ],
        "code": {
          "coding": [
            {
              "system": "http://hospital.example.org/waste-types",
              "code": "general-waste",
              "display": "General Waste"
            }
          ],
          "text": "一般廢棄物"
        },
        "subject": {
          "reference": "Patient/TW00252"
        },
        "encounter": {
          "reference": "Encounter/TW00252-enc"
        },
        "effectiveDateTime": "2025-11-27T12:00:00+08:00",
        "issued": "2025-11-27T12:00:00+08:00",
        "valueQuantity": {
          "value": 6.0,
          "unit": "kg",
          "system": "http://unitsofmeasure.org",
          "code": "kg"
        },
        "note": [
          {
            "text": "住院 4 天產生的一般廢棄物總量"
          }
        ]
      },
      "request": {
        "method": "PUT",
        "url": "Observation/TW00252-waste-general"
      }
    },
    {
      "fullUrl": "https://emr-smart.appx.com.tw/v/r4/fhir/Observation/TW00252-waste-infectious",
      "resource": {
        "resourceType": "Observation",
        "id": "TW00252-waste-infectious",
        "status": "final",
        "category": [
          {
            "coding": [
              {
                "system": "http://terminology.hl7.org/CodeSystem/observation-category",
                "code": "environmental",
                "display": "Environmental"
              }
            ]
          }
        ],
        "code": {
          "coding": [
            {
              "system": "http://hospital.example.org/waste-types",
              "code": "infectious-waste",
              "display": "Infectious Waste"
            }
          ],
          "text": "感染性廢棄物"
        },
        "subject": {
          "reference": "Patient/TW00252"
        },
        "encounter": {
          "reference": "Encounter/TW00252-enc"
        },
        "effectiveDateTime": "2025-11-27T12:00:00+08:00",
        "issued": "2025-11-27T12:00:00+08:00",
        "valueQuantity": {
          "value": 3.2,
          "unit": "kg",
          "system": "http://unitsofmeasure.org",
          "code": "kg"
        },
        "note": [
          {
            "text": "住院 4 天產生的感染性廢棄物總量"
          }
        ]
      },
      "request": {
        "method": "PUT",
        "url": "Observation/TW00252-waste-infectious"
      }
    },
    {
      "fullUrl": "https://emr-smart.appx.com.tw/v/r4/fhir/Observation/TW00252-waste-recyclable",
      "resource": {
        "resourceType": "Observation",
        "id": "TW00252-waste-recyclable",
        "status": "final",
        "category": [
          {
            "coding": [
              {
                "system": "http://terminology.hl7.org/CodeSystem/observation-category",
                "code": "environmental",
                "display": "Environmental"
              }
            ]
          }
        ],
        "code": {
          "coding": [
            {
              "system": "http://hospital.example.org/waste-types",
              "code": "recyclable-waste",
              "display": "Recyclable Waste"
            }
          ],
          "text": "可回收廢棄物"
        },
        "subject": {
          "reference": "Patient/TW00252"
        },
        "encounter": {
          "reference": "Encounter/TW00252-enc"
        },
        "effectiveDateTime": "2025-11-27T12:00:00+08:00",
        "issued": "2025-11-27T12:00:00+08:00",
        "valueQuantity": {
          "value": 0.8,
          "unit": "kg",
          "system": "http://unitsofmeasure.org",
          "code": "kg"
        },
        "note": [
          {
            "text": "住院 4 天產生的可回收廢棄物總量"
          }
        ]
      },
      "request": {
        "method": "PUT",
        "url": "Observation/TW00252-waste-recyclable"
      }
    },
    {
      "fullUrl": "https://emr-smart.appx.com.tw/v/r4/fhir/Patient/TW00253",
      "resource": {
        "resourceType": "Patient",
        "id": "TW00253",
        "identifier": [
          {
            "system": "http://hospital.example.org/patients",
            "value": "TW00253"
          }
        ],
        "name": [
          {
            "family": "劉",
            "given": [
              "婉婷"
            ],
            "text": "劉婉婷"
          }
        ],
        "gender": "female",
        "birthDate": "1985-12-02",
        "address": [
          {
            "city": "苗栗縣",
            "country": "TW"
          }
        ]
      },
      "request": {
        "method": "PUT",
        "url": "Patient/TW00253"
      }
    },
    {
      "fullUrl": "https://emr-smart.appx.com.tw/v/r4/fhir/Encounter/TW00253-enc",
      "resource": {
        "resourceType": "Encounter",
        "id": "TW00253-enc",
        "status": "finished",
        "class": {
          "system": "http://terminology.hl7.org/CodeSystem/v3-ActCode",
          "code": "IMP",
          "display": "inpatient encounter"
        },
        "type": [
          {
            "coding": [
              {
                "system": "http://hospital.example.org/ward-types",
                "code": "Surgery",
                "display": "外科病房"
              }
            ],
            "text": "外科病房"
          }
        ],
        "subject": {
          "reference": "Patient/TW00253"
        },
        "period": {
          "start": "2025-11-10T08:00:00+08:00",
          "end": "2025-11-15T10:00:00+08:00"
        },
        "hospitalization": {
          "admitSource": {
            "coding": [
              {
                "system": "http://terminology.hl7.org/CodeSystem/admit-source",
                "code": "emd",
                "display": "From accident/emergency department"
              }
            ]
          }
        }
      },
      "request": {
        "method": "PUT",
        "url": "Encounter/TW00253-enc"
      }
    },
    {
      "fullUrl": "https://emr-smart.appx.com.tw/v/r4/fhir/Observation/TW00253-waste-general",
      "resource": {
        "resourceType": "Observation",
        "id": "TW00253-waste-general",
        "status": "final",
        "category": [
          {
            "coding": [
              {
                "system": "http://terminology.hl7.org/CodeSystem/observation-category",
                "code": "environmental",
                "display": "Environmental"
              }
            ]
          }
        ],
        "code": {
          "coding": [
            {
              "system": "http://hospital.example.org/waste-types",
              "code": "general-waste",
              "display": "General Waste"
            }
          ],
          "text": "一般廢棄物"
        },
        "subject": {
          "reference": "Patient/TW00253"
        },
        "encounter": {
          "reference": "Encounter/TW00253-enc"
        },
        "effectiveDateTime": "2025-11-28T12:00:00+08:00",
        "issued": "2025-11-28T12:00:00+08:00",
        "valueQuantity": {
          "value": 10.0,
          "unit": "kg",
          "system": "http://unitsofmeasure.org",
          "code": "kg"
        },
        "note": [
          {
            "text": "住院 5 天產生的一般廢棄物總量"
          }
        ]
      },
      "request": {
        "method": "PUT",
        "url": "Observation/TW00253-waste-general"
      }
    },
    {
      "fullUrl": "https://emr-smart.appx.com.tw/v/r4/fhir/Observation/TW00253-waste-infectious",
      "resource": {
        "resourceType": "Observation",
        "id": "TW00253-waste-infectious",
        "status": "final",
        "category": [
          {
            "coding": [
              {
                "system": "http://terminology.hl7.org/CodeSystem/observation-category",
                "code": "environmental",
                "display": "Environmental"
              }
            ]
          }
        ],
        "code": {
          "coding": [
            {
              "system": "http://hospital.example.org/waste-types",
              "code": "infectious-waste",
              "display": "Infectious Waste"
            }
          ],
          "text": "感染性廢棄物"
        },
        "subject": {
          "reference": "Patient/TW00253"
        },
        "encounter": {
          "reference": "Encounter/TW00253-enc"
        },
        "effectiveDateTime": "2025-11-28T12:00:00+08:00",
        "issued": "2025-11-28T12:00:00+08:00",
        "valueQuantity": {
          "value": 7.5,
          "unit": "kg",
          "system": "http://unitsofmeasure.org",
          "code": "kg"
        },
        "note": [
          {
            "text": "住院 5 天產生的感染性廢棄物總量"
          }
        ]
      },
      "request": {
        "method": "PUT",
        "url": "Observation/TW00253-waste-infectious"
      }
    },
    {
      "fullUrl": "https://emr-smart.appx.com.tw/v/r4/fhir/Observation/TW00253-waste-recyclable",
      "resource": {
        "resourceType": "Observation",
        "id": "TW00253-waste-recyclable",
        "status": "final",
        "category": [
          {
            "coding": [
              {
                "system": "http://terminology.hl7.org/CodeSystem/observation-category",
                "code": "environmental",
                "display": "Environmental"
              }
            ]
          }
        ],
        "code": {
          "coding": [
            {
              "system": "http://hospital.example.org/waste-types",
              "code": "recyclable-waste",
              "display": "Recyclable Waste"
            }
          ],
          "text": "可回收廢棄物"
        },
        "subject": {
          "reference": "Patient/TW00253"
        },
        "encounter": {
          "reference": "Encounter/TW00253-enc"
        },
        "effectiveDateTime": "2025-11-28T12:00:00+08:00",
        "issued": "2025-11-28T12:00:00+08:00",
        "valueQuantity": {
          "value": 1.5,
          "unit": "kg",
          "system": "http://unitsofmeasure.org",
          "code": "kg"
        },
        "note": [
          {
            "text": "住院 5 天產生的可回收廢棄物總量"
          }
        ]
      },
      "request": {
        "method": "PUT",
        "url": "Observation/TW00253-waste-recyclable"
      }
    },
    {
      "fullUrl": "https://emr-smart.appx.com.tw/v/r4/fhir/Patient/TW00254",
      "resource": {
        "resourceType": "Patient",
        "id": "TW00254",
        "identifier": [
          {
            "system": "http://hospital.example.org/patients",
            "value": "TW00254"
          }
        ],
        "name": [
          {
            "family": "郭",
            "given": [
              "婉婷"
            ],
            "text": "郭婉婷"
          }
        ],
        "gender": "female",
        "birthDate": "2000-12-15",
        "address": [
          {
            "city": "花蓮縣",
            "country": "TW"
          }
        ]
      },
      "request": {
        "method": "PUT",
        "url": "Patient/TW00254"
      }
    },
    {
      "fullUrl": "https://emr-smart.appx.com.tw/v/r4/fhir/Encounter/TW00254-enc",
      "resource": {
        "resourceType": "Encounter",
        "id": "TW00254-enc",
        "status": "finished",
        "class": {
          "system": "http://terminology.hl7.org/CodeSystem/v3-ActCode",
          "code": "IMP",
          "display": "inpatient encounter"
        },
        "type": [
          {
            "coding": [
              {
                "system": "http://hospital.example.org/ward-types",
                "code": "Surgery",
                "display": "外科病房"
              }
            ],
            "text": "外科病房"
          }
        ],
        "subject": {
          "reference": "Patient/TW00254"
        },
        "period": {
          "start": "2025-11-13T08:00:00+08:00",
          "end": "2025-11-18T10:00:00+08:00"
        },
        "hospitalization": {
          "admitSource": {
            "coding": [
              {
                "system": "http://terminology.hl7.org/CodeSystem/admit-source",
                "code": "emd",
                "display": "From accident/emergency department"
              }
            ]
          }
        }
      },
      "request": {
        "method": "PUT",
        "url": "Encounter/TW00254-enc"
      }
    },
    {
      "fullUrl": "https://emr-smart.appx.com.tw/v/r4/fhir/Observation/TW00254-waste-general",
      "resource": {
        "resourceType": "Observation",
        "id": "TW00254-waste-general",
        "status": "final",
        "category": [
          {
            "coding": [
              {
                "system": "http://terminology.hl7.org/CodeSystem/observation-category",
                "code": "environmental",
                "display": "Environmental"
              }
            ]
          }
        ],
        "code": {
          "coding": [
            {
              "system": "http://hospital.example.org/waste-types",
              "code": "general-waste",
              "display": "General Waste"
            }
          ],
          "text": "一般廢棄物"
        },
        "subject": {
          "reference": "Patient/TW00254"
        },
        "encounter": {
          "reference": "Encounter/TW00254-enc"
        },
        "effectiveDateTime": "2025-11-28T12:00:00+08:00",
        "issued": "2025-11-28T12:00:00+08:00",
        "valueQuantity": {
          "value": 10.0,
          "unit": "kg",
          "system": "http://unitsofmeasure.org",
          "code": "kg"
        },
        "note": [
          {
            "text": "住院 5 天產生的一般廢棄物總量"
          }
        ]
      },
      "request": {
        "method": "PUT",
        "url": "Observation/TW00254-waste-general"
      }
    },
    {
      "fullUrl": "https://emr-smart.appx.com.tw/v/r4/fhir/Observation/TW00254-waste-infectious",
      "resource": {
        "resourceType": "Observation",
        "id": "TW00254-waste-infectious",
        "status": "final",
        "category": [
          {
            "coding": [
              {
                "system": "http://terminology.hl7.org/CodeSystem/observation-category",
                "code": "environmental",
                "display": "Environmental"
              }
            ]
          }
        ],
        "code": {
          "coding": [
            {
              "system": "http://hospital.example.org/waste-types",
              "code": "infectious-waste",
              "display": "Infectious Waste"
            }
          ],
          "text": "感染性廢棄物"
        },
        "subject": {
          "reference": "Patient/TW00254"
        },
        "encounter": {
          "reference": "Encounter/TW00254-enc"
        },
        "effectiveDateTime": "2025-11-28T12:00:00+08:00",
        "issued": "2025-11-28T12:00:00+08:00",
        "valueQuantity": {
          "value": 7.5,
          "unit": "kg",
          "system": "http://unitsofmeasure.org",
          "code": "kg"
        },
        "note": [
          {
            "text": "住院 5 天產生的感染性廢棄物總量"
          }
        ]
      },
      "request": {
        "method": "PUT",
        "url": "Observation/TW00254-waste-infectious"
      }
    },
    {
      "fullUrl": "https://emr-smart.appx.com.tw/v/r4/fhir/Observation/TW00254-waste-recyclable",
      "resource": {
        "resourceType": "Observation",
        "id": "TW00254-waste-recyclable",
        "status": "final",
        "category": [
          {
            "coding": [
              {
                "system": "http://terminology.hl7.org/CodeSystem/observation-category",
                "code": "environmental",
                "display": "Environmental"
              }
            ]
          }
        ],
        "code": {
          "coding": [
            {
              "system": "http://hospital.example.org/waste-types",
              "code": "recyclable-waste",
              "display": "Recyclable Waste"
            }
          ],
          "text": "可回收廢棄物"
        },
        "subject": {
          "reference": "Patient/TW00254"
        },
        "encounter": {
          "reference": "Encounter/TW00254-enc"
        },
        "effectiveDateTime": "2025-11-28T12:00:00+08:00",
        "issued": "2025-11-28T12:00:00+08:00",
        "valueQuantity": {
          "value": 1.5,
          "unit": "kg",
          "system": "http://unitsofmeasure.org",
          "code": "kg"
        },
        "note": [
          {
            "text": "住院 5 天產生的可回收廢棄物總量"
          }
        ]
      },
      "request": {
        "method": "PUT",
        "url": "Observation/TW00254-waste-recyclable"
      }
    },
    {
      "fullUrl": "https://emr-smart.appx.com.tw/v/r4/fhir/Patient/TW00255",
      "resource": {
        "resourceType": "Patient",
        "id": "TW00255",
        "identifier": [
          {
            "system": "http://hospital.example.org/patients",
            "value": "TW00255"
          }
        ],
        "name": [
          {
            "family": "黃",
            "given": [
              "雅婷"
            ],
            "text": "黃雅婷"
          }
        ],
        "gender": "female",
        "birthDate": "1998-11-23",
        "address": [
          {
            "city": "新北市",
            "country": "TW"
          }
        ]
      },
      "request": {
        "method": "PUT",
        "url": "Patient/TW00255"
      }
    },
    {
      "fullUrl": "https://emr-smart.appx.com.tw/v/r4/fhir/Encounter/TW00255-enc",
      "resource": {
        "resourceType": "Encounter",
        "id": "TW00255-enc",
        "status": "finished",
        "class": {
          "system": "http://terminology.hl7.org/CodeSystem/v3-ActCode",
          "code": "IMP",
          "display": "inpatient encounter"
        },
        "type": [
          {
            "coding": [
              {
                "system": "http://hospital.example.org/ward-types",
                "code": "Surgery",
                "display": "外科病房"
              }
            ],
            "text": "外科病房"
          }
        ],
        "subject": {
          "reference": "Patient/TW00255"
        },
        "period": {
          "start": "2025-11-26T08:00:00+08:00",
          "end": "2025-12-03T10:00:00+08:00"
        },
        "hospitalization": {
          "admitSource": {
            "coding": [
              {
                "system": "http://terminology.hl7.org/CodeSystem/admit-source",
                "code": "emd",
                "display": "From accident/emergency department"
              }
            ]
          }
        }
      },
      "request": {
        "method": "PUT",
        "url": "Encounter/TW00255-enc"
      }
    },
    {
      "fullUrl": "https://emr-smart.appx.com.tw/v/r4/fhir/Observation/TW00255-waste-general",
      "resource": {
        "resourceType": "Observation",
        "id": "TW00255-waste-general",
        "status": "final",
        "category": [
          {
            "coding": [
              {
                "system": "http://terminology.hl7.org/CodeSystem/observation-category",
                "code": "environmental",
                "display": "Environmental"
              }
            ]
          }
        ],
        "code": {
          "coding": [
            {
              "system": "http://hospital.example.org/waste-types",
              "code": "general-waste",
              "display": "General Waste"
            }
          ],
          "text": "一般廢棄物"
        },
        "subject": {
          "reference": "Patient/TW00255"
        },
        "encounter": {
          "reference": "Encounter/TW00255-enc"
        },
        "effectiveDateTime": "2025-11-24T12:00:00+08:00",
        "issued": "2025-11-24T12:00:00+08:00",
        "valueQuantity": {
          "value": 14.0,
          "unit": "kg",
          "system": "http://unitsofmeasure.org",
          "code": "kg"
        },
        "note": [
          {
            "text": "住院 7 天產生的一般廢棄物總量"
          }
        ]
      },
      "request": {
        "method": "PUT",
        "url": "Observation/TW00255-waste-general"
      }
    },
    {
      "fullUrl": "https://emr-smart.appx.com.tw/v/r4/fhir/Observation/TW00255-waste-infectious",
      "resource": {
        "resourceType": "Observation",
        "id": "TW00255-waste-infectious",
        "status": "final",
        "category": [
          {
            "coding": [
              {
                "system": "http://terminology.hl7.org/CodeSystem/observation-category",
                "code": "environmental",
                "display": "Environmental"
              }
            ]
          }
        ],
        "code": {
          "coding": [
            {
              "system": "http://hospital.example.org/waste-types",
              "code": "infectious-waste",
              "display": "Infectious Waste"
            }
          ],
          "text": "感染性廢棄物"
        },
        "subject": {
          "reference": "Patient/TW00255"
        },
        "encounter": {
          "reference": "Encounter/TW00255-enc"
        },
        "effectiveDateTime": "2025-11-24T12:00:00+08:00",
        "issued": "2025-11-24T12:00:00+08:00",
        "valueQuantity": {
          "value": 10.5,
          "unit": "kg",
          "system": "http://unitsofmeasure.org",
          "code": "kg"
        },
        "note": [
          {
            "text": "住院 7 天產生的感染性廢棄物總量"
          }
        ]
      },
      "request": {
        "method": "PUT",
        "url": "Observation/TW00255-waste-infectious"
      }
    },
    {
      "fullUrl": "https://emr-smart.appx.com.tw/v/r4/fhir/Observation/TW00255-waste-recyclable",
      "resource": {
        "resourceType": "Observation",
        "id": "TW00255-waste-recyclable",
        "status": "final",
        "category": [
          {
            "coding": [
              {
                "system": "http://terminology.hl7.org/CodeSystem/observation-category",
                "code": "environmental",
                "display": "Environmental"
              }
            ]
          }
        ],
        "code": {
          "coding": [
            {
              "system": "http://hospital.example.org/waste-types",
              "code": "recyclable-waste",
              "display": "Recyclable Waste"
            }
          ],
          "text": "可回收廢棄物"
        },
        "subject": {
          "reference": "Patient/TW00255"
        },
        "encounter": {
          "reference": "Encounter/TW00255-enc"
        },
        "effectiveDateTime": "2025-11-24T12:00:00+08:00",
        "issued": "2025-11-24T12:00:00+08:00",
        "valueQuantity": {
          "value": 2.1,
          "unit": "kg",
          "system": "http://unitsofmeasure.org",
          "code": "kg"
        },
        "note": [
          {
            "text": "住院 7 天產生的可回收廢棄物總量"
          }
        ]
      },
      "request": {
        "method": "PUT",
        "url": "Observation/TW00255-waste-recyclable"
      }
    },
    {
      "fullUrl": "https://emr-smart.appx.com.tw/v/r4/fhir/Patient/TW00256",
      "resource": {
        "resourceType": "Patient",
        "id": "TW00256",
        "identifier": [
          {
            "system": "http://hospital.example.org/patients",
            "value": "TW00256"
          }
        ],
        "name": [
          {
            "family": "曾",
            "given": [
              "雅婷"
            ],
            "text": "曾雅婷"
          }
        ],
        "gender": "female",
        "birthDate": "1955-02-14",
        "address": [
          {
            "city": "新北市",
            "country": "TW"
          }
        ]
      },
      "request": {
        "method": "PUT",
        "url": "Patient/TW00256"
      }
    },
    {
      "fullUrl": "https://emr-smart.appx.com.tw/v/r4/fhir/Encounter/TW00256-enc",
      "resource": {
        "resourceType": "Encounter",
        "id": "TW00256-enc",
        "status": "finished",
        "class": {
          "system": "http://terminology.hl7.org/CodeSystem/v3-ActCode",
          "code": "IMP",
          "display": "inpatient encounter"
        },
        "type": [
          {
            "coding": [
              {
                "system": "http://hospital.example.org/ward-types",
                "code": "ICU",
                "display": "加護病房"
              }
            ],
            "text": "加護病房"
          }
        ],
        "subject": {
          "reference": "Patient/TW00256"
        },
        "period": {
          "start": "2025-11-18T08:00:00+08:00",
          "end": "2025-11-21T10:00:00+08:00"
        },
        "hospitalization": {
          "admitSource": {
            "coding": [
              {
                "system": "http://terminology.hl7.org/CodeSystem/admit-source",
                "code": "emd",
                "display": "From accident/emergency department"
              }
            ]
          }
        }
      },
      "request": {
        "method": "PUT",
        "url": "Encounter/TW00256-enc"
      }
    },
    {
      "fullUrl": "https://emr-smart.appx.com.tw/v/r4/fhir/Observation/TW00256-waste-general",
      "resource": {
        "resourceType": "Observation",
        "id": "TW00256-waste-general",
        "status": "final",
        "category": [
          {
            "coding": [
              {
                "system": "http://terminology.hl7.org/CodeSystem/observation-category",
                "code": "environmental",
                "display": "Environmental"
              }
            ]
          }
        ],
        "code": {
          "coding": [
            {
              "system": "http://hospital.example.org/waste-types",
              "code": "general-waste",
              "display": "General Waste"
            }
          ],
          "text": "一般廢棄物"
        },
        "subject": {
          "reference": "Patient/TW00256"
        },
        "encounter": {
          "reference": "Encounter/TW00256-enc"
        },
        "effectiveDateTime": "2025-11-23T12:00:00+08:00",
        "issued": "2025-11-23T12:00:00+08:00",
        "valueQuantity": {
          "value": 7.5,
          "unit": "kg",
          "system": "http://unitsofmeasure.org",
          "code": "kg"
        },
        "note": [
          {
            "text": "住院 3 天產生的一般廢棄物總量"
          }
        ]
      },
      "request": {
        "method": "PUT",
        "url": "Observation/TW00256-waste-general"
      }
    },
    {
      "fullUrl": "https://emr-smart.appx.com.tw/v/r4/fhir/Observation/TW00256-waste-infectious",
      "resource": {
        "resourceType": "Observation",
        "id": "TW00256-waste-infectious",
        "status": "final",
        "category": [
          {
            "coding": [
              {
                "system": "http://terminology.hl7.org/CodeSystem/observation-category",
                "code": "environmental",
                "display": "Environmental"
              }
            ]
          }
        ],
        "code": {
          "coding": [
            {
              "system": "http://hospital.example.org/waste-types",
              "code": "infectious-waste",
              "display": "Infectious Waste"
            }
          ],
          "text": "感染性廢棄物"
        },
        "subject": {
          "reference": "Patient/TW00256"
        },
        "encounter": {
          "reference": "Encounter/TW00256-enc"
        },
        "effectiveDateTime": "2025-11-23T12:00:00+08:00",
        "issued": "2025-11-23T12:00:00+08:00",
        "valueQuantity": {
          "value": 6.0,
          "unit": "kg",
          "system": "http://unitsofmeasure.org",
          "code": "kg"
        },
        "note": [
          {
            "text": "住院 3 天產生的感染性廢棄物總量"
          }
        ]
      },
      "request": {
        "method": "PUT",
        "url": "Observation/TW00256-waste-infectious"
      }
    },
    {
      "fullUrl": "https://emr-smart.appx.com.tw/v/r4/fhir/Observation/TW00256-waste-recyclable",
      "resource": {
        "resourceType": "Observation",
        "id": "TW00256-waste-recyclable",
        "status": "final",
        "category": [
          {
            "coding": [
              {
                "system": "http://terminology.hl7.org/CodeSystem/observation-category",
                "code": "environmental",
                "display": "Environmental"
              }
            ]
          }
        ],
        "code": {
          "coding": [
            {
              "system": "http://hospital.example.org/waste-types",
              "code": "recyclable-waste",
              "display": "Recyclable Waste"
            }
          ],
          "text": "可回收廢棄物"
        },
        "subject": {
          "reference": "Patient/TW00256"
        },
        "encounter": {
          "reference": "Encounter/TW00256-enc"
        },
        "effectiveDateTime": "2025-11-23T12:00:00+08:00",
        "issued": "2025-11-23T12:00:00+08:00",
        "valueQuantity": {
          "value": 0.9,
          "unit": "kg",
          "system": "http://unitsofmeasure.org",
          "code": "kg"
        },
        "note": [
          {
            "text": "住院 3 天產生的可回收廢棄物總量"
          }
        ]
      },
      "request": {
        "method": "PUT",
        "url": "Observation/TW00256-waste-recyclable"
      }
    },
    {
      "fullUrl": "https://emr-smart.appx.com.tw/v/r4/fhir/Patient/TW00257",
      "resource": {
        "resourceType": "Patient",
        "id": "TW00257",
        "identifier": [
          {
            "system": "http://hospital.example.org/patients",
            "value": "TW00257"
          }
        ],
        "name": [
          {
            "family": "鄭",
            "given": [
              "彥廷"
            ],
            "text": "鄭彥廷"
          }
        ],
        "gender": "male",
        "birthDate": "1986-05-04",
        "address": [
          {
            "city": "新竹縣",
            "country": "TW"
          }
        ]
      },
      "request": {
        "method": "PUT",
        "url": "Patient/TW00257"
      }
    },
    {
      "fullUrl": "https://emr-smart.appx.com.tw/v/r4/fhir/Encounter/TW00257-enc",
      "resource": {
        "resourceType": "Encounter",
        "id": "TW00257-enc",
        "status": "finished",
        "class": {
          "system": "http://terminology.hl7.org/CodeSystem/v3-ActCode",
          "code": "IMP",
          "display": "inpatient encounter"
        },
        "type": [
          {
            "coding": [
              {
                "system": "http://hospital.example.org/ward-types",
                "code": "ICU",
                "display": "加護病房"
              }
            ],
            "text": "加護病房"
          }
        ],
        "subject": {
          "reference": "Patient/TW00257"
        },
        "period": {
          "start": "2025-11-07T08:00:00+08:00",
          "end": "2025-11-10T10:00:00+08:00"
        },
        "hospitalization": {
          "admitSource": {
            "coding": [
              {
                "system": "http://terminology.hl7.org/CodeSystem/admit-source",
                "code": "emd",
                "display": "From accident/emergency department"
              }
            ]
          }
        }
      },
      "request": {
        "method": "PUT",
        "url": "Encounter/TW00257-enc"
      }
    },
    {
      "fullUrl": "https://emr-smart.appx.com.tw/v/r4/fhir/Observation/TW00257-waste-general",
      "resource": {
        "resourceType": "Observation",
        "id": "TW00257-waste-general",
        "status": "final",
        "category": [
          {
            "coding": [
              {
                "system": "http://terminology.hl7.org/CodeSystem/observation-category",
                "code": "environmental",
                "display": "Environmental"
              }
            ]
          }
        ],
        "code": {
          "coding": [
            {
              "system": "http://hospital.example.org/waste-types",
              "code": "general-waste",
              "display": "General Waste"
            }
          ],
          "text": "一般廢棄物"
        },
        "subject": {
          "reference": "Patient/TW00257"
        },
        "encounter": {
          "reference": "Encounter/TW00257-enc"
        },
        "effectiveDateTime": "2025-11-26T12:00:00+08:00",
        "issued": "2025-11-26T12:00:00+08:00",
        "valueQuantity": {
          "value": 7.5,
          "unit": "kg",
          "system": "http://unitsofmeasure.org",
          "code": "kg"
        },
        "note": [
          {
            "text": "住院 3 天產生的一般廢棄物總量"
          }
        ]
      },
      "request": {
        "method": "PUT",
        "url": "Observation/TW00257-waste-general"
      }
    },
    {
      "fullUrl": "https://emr-smart.appx.com.tw/v/r4/fhir/Observation/TW00257-waste-infectious",
      "resource": {
        "resourceType": "Observation",
        "id": "TW00257-waste-infectious",
        "status": "final",
        "category": [
          {
            "coding": [
              {
                "system": "http://terminology.hl7.org/CodeSystem/observation-category",
                "code": "environmental",
                "display": "Environmental"
              }
            ]
          }
        ],
        "code": {
          "coding": [
            {
              "system": "http://hospital.example.org/waste-types",
              "code": "infectious-waste",
              "display": "Infectious Waste"
            }
          ],
          "text": "感染性廢棄物"
        },
        "subject": {
          "reference": "Patient/TW00257"
        },
        "encounter": {
          "reference": "Encounter/TW00257-enc"
        },
        "effectiveDateTime": "2025-11-26T12:00:00+08:00",
        "issued": "2025-11-26T12:00:00+08:00",
        "valueQuantity": {
          "value": 6.0,
          "unit": "kg",
          "system": "http://unitsofmeasure.org",
          "code": "kg"
        },
        "note": [
          {
            "text": "住院 3 天產生的感染性廢棄物總量"
          }
        ]
      },
      "request": {
        "method": "PUT",
        "url": "Observation/TW00257-waste-infectious"
      }
    },
    {
      "fullUrl": "https://emr-smart.appx.com.tw/v/r4/fhir/Observation/TW00257-waste-recyclable",
      "resource": {
        "resourceType": "Observation",
        "id": "TW00257-waste-recyclable",
        "status": "final",
        "category": [
          {
            "coding": [
              {
                "system": "http://terminology.hl7.org/CodeSystem/observation-category",
                "code": "environmental",
                "display": "Environmental"
              }
            ]
          }
        ],
        "code": {
          "coding": [
            {
              "system": "http://hospital.example.org/waste-types",
              "code": "recyclable-waste",
              "display": "Recyclable Waste"
            }
          ],
          "text": "可回收廢棄物"
        },
        "subject": {
          "reference": "Patient/TW00257"
        },
        "encounter": {
          "reference": "Encounter/TW00257-enc"
        },
        "effectiveDateTime": "2025-11-26T12:00:00+08:00",
        "issued": "2025-11-26T12:00:00+08:00",
        "valueQuantity": {
          "value": 0.9,
          "unit": "kg",
          "system": "http://unitsofmeasure.org",
          "code": "kg"
        },
        "note": [
          {
            "text": "住院 3 天產生的可回收廢棄物總量"
          }
        ]
      },
      "request": {
        "method": "PUT",
        "url": "Observation/TW00257-waste-recyclable"
      }
    },
    {
      "fullUrl": "https://emr-smart.appx.com.tw/v/r4/fhir/Patient/TW00258",
      "resource": {
        "resourceType": "Patient",
        "id": "TW00258",
        "identifier": [
          {
            "system": "http://hospital.example.org/patients",
            "value": "TW00258"
          }
        ],
        "name": [
          {
            "family": "邱",
            "given": [
              "宜蓁"
            ],
            "text": "邱宜蓁"
          }
        ],
        "gender": "female",
        "birthDate": "1981-12-21",
        "address": [
          {
            "city": "連江縣",
            "country": "TW"
          }
        ]
      },
      "request": {
        "method": "PUT",
        "url": "Patient/TW00258"
      }
    },
    {
      "fullUrl": "https://emr-smart.appx.com.tw/v/r4/fhir/Encounter/TW00258-enc",
      "resource": {
        "resourceType": "Encounter",
        "id": "TW00258-enc",
        "status": "finished",
        "class": {
          "system": "http://terminology.hl7.org/CodeSystem/v3-ActCode",
          "code": "IMP",
          "display": "inpatient encounter"
        },
        "type": [
          {
            "coding": [
              {
                "system": "http://hospital.example.org/ward-types",
                "code": "ICU",
                "display": "加護病房"
              }
            ],
            "text": "加護病房"
          }
        ],
        "subject": {
          "reference": "Patient/TW00258"
        },
        "period": {
          "start": "2025-11-20T08:00:00+08:00",
          "end": "2025-11-23T10:00:00+08:00"
        },
        "hospitalization": {
          "admitSource": {
            "coding": [
              {
                "system": "http://terminology.hl7.org/CodeSystem/admit-source",
                "code": "emd",
                "display": "From accident/emergency department"
              }
            ]
          }
        }
      },
      "request": {
        "method": "PUT",
        "url": "Encounter/TW00258-enc"
      }
    },
    {
      "fullUrl": "https://emr-smart.appx.com.tw/v/r4/fhir/Observation/TW00258-waste-general",
      "resource": {
        "resourceType": "Observation",
        "id": "TW00258-waste-general",
        "status": "final",
        "category": [
          {
            "coding": [
              {
                "system": "http://terminology.hl7.org/CodeSystem/observation-category",
                "code": "environmental",
                "display": "Environmental"
              }
            ]
          }
        ],
        "code": {
          "coding": [
            {
              "system": "http://hospital.example.org/waste-types",
              "code": "general-waste",
              "display": "General Waste"
            }
          ],
          "text": "一般廢棄物"
        },
        "subject": {
          "reference": "Patient/TW00258"
        },
        "encounter": {
          "reference": "Encounter/TW00258-enc"
        },
        "effectiveDateTime": "2025-11-22T12:00:00+08:00",
        "issued": "2025-11-22T12:00:00+08:00",
        "valueQuantity": {
          "value": 7.5,
          "unit": "kg",
          "system": "http://unitsofmeasure.org",
          "code": "kg"
        },
        "note": [
          {
            "text": "住院 3 天產生的一般廢棄物總量"
          }
        ]
      },
      "request": {
        "method": "PUT",
        "url": "Observation/TW00258-waste-general"
      }
    },
    {
      "fullUrl": "https://emr-smart.appx.com.tw/v/r4/fhir/Observation/TW00258-waste-infectious",
      "resource": {
        "resourceType": "Observation",
        "id": "TW00258-waste-infectious",
        "status": "final",
        "category": [
          {
            "coding": [
              {
                "system": "http://terminology.hl7.org/CodeSystem/observation-category",
                "code": "environmental",
                "display": "Environmental"
              }
            ]
          }
        ],
        "code": {
          "coding": [
            {
              "system": "http://hospital.example.org/waste-types",
              "code": "infectious-waste",
              "display": "Infectious Waste"
            }
          ],
          "text": "感染性廢棄物"
        },
        "subject": {
          "reference": "Patient/TW00258"
        },
        "encounter": {
          "reference": "Encounter/TW00258-enc"
        },
        "effectiveDateTime": "2025-11-22T12:00:00+08:00",
        "issued": "2025-11-22T12:00:00+08:00",
        "valueQuantity": {
          "value": 6.0,
          "unit": "kg",
          "system": "http://unitsofmeasure.org",
          "code": "kg"
        },
        "note": [
          {
            "text": "住院 3 天產生的感染性廢棄物總量"
          }
        ]
      },
      "request": {
        "method": "PUT",
        "url": "Observation/TW00258-waste-infectious"
      }
    },
    {
      "fullUrl": "https://emr-smart.appx.com.tw/v/r4/fhir/Observation/TW00258-waste-recyclable",
      "resource": {
        "resourceType": "Observation",
        "id": "TW00258-waste-recyclable",
        "status": "final",
        "category": [
          {
            "coding": [
              {
                "system": "http://terminology.hl7.org/CodeSystem/observation-category",
                "code": "environmental",
                "display": "Environmental"
              }
            ]
          }
        ],
        "code": {
          "coding": [
            {
              "system": "http://hospital.example.org/waste-types",
              "code": "recyclable-waste",
              "display": "Recyclable Waste"
            }
          ],
          "text": "可回收廢棄物"
        },
        "subject": {
          "reference": "Patient/TW00258"
        },
        "encounter": {
          "reference": "Encounter/TW00258-enc"
        },
        "effectiveDateTime": "2025-11-22T12:00:00+08:00",
        "issued": "2025-11-22T12:00:00+08:00",
        "valueQuantity": {
          "value": 0.9,
          "unit": "kg",
          "system": "http://unitsofmeasure.org",
          "code": "kg"
        },
        "note": [
          {
            "text": "住院 3 天產生的可回收廢棄物總量"
          }
        ]
      },
      "request": {
        "method": "PUT",
        "url": "Observation/TW00258-waste-recyclable"
      }
    }
  ]
}