{
  "resourceType": "Bundle",
  "type": "transaction",
  "entry": [
    {
      "resource": {
        "resourceType": "Patient",
        "id": "TW00233",
        "identifier": [
          {
            "system": "urn:oid:2.16.886.101.20003.20001",
            "value": "TW00233"
          }
        ],
        "name": [
          {
            "text": "郭雅雯",
            "family": "郭",
            "given": [
              "雅雯"
            ]
          }
        ],
        "gender": "female",
        "birthDate": "1991-08-27",
        "address": [
          {
            "city": "台中市",
            "country": "TW"
          }
        ]
      },
      "request": {
        "method": "PUT",
        "url": "Patient/TW00233"
      }
    },
    {
      "resource": {
        "resourceType": "Encounter",
        "id": "TW00233-encounter",
        "status": "finished",
        "class": {
          "system": "http://terminology.hl7.org/CodeSystem/v3-ActCode",
          "code": "ACUTE"
        },
        "subject": {
          "reference": "Patient/TW00233"
        },
        "period": {
          "start": "2025-08-13T00:00:00+08:00",
          "end": "2025-08-16T00:00:00+08:00"
        },
        "reasonCode": [
          {
            "coding": [
              {
                "system": "http://hl7.org/fhir/sid/icd-10",
                "code": "A41.9",
                "display": "Sepsis, unspecified organism"
              }
            ],
            "text": "Sepsis, unspecified organism"
          }
        ]
      },
      "request": {
        "method": "PUT",
        "url": "Encounter/TW00233-encounter"
      }
    },
    {
      "resource": {
        "resourceType": "MedicationRequest",
        "id": "TW00233-med-request",
        "status": "completed",
        "intent": "order",
        "medicationCodeableConcept": {
          "coding": [
            {
              "system": "http://www.whocc.no/atc",
              "code": "J01MA02",
              "display": "Ciprofloxacin"
            }
          ],
          "text": "Ciprofloxacin"
        },
        "subject": {
          "reference": "Patient/TW00233"
        },
        "encounter": {
          "reference": "Encounter/TW00233-encounter"
        },
        "authoredOn": "2025-08-13T00:00:00+08:00",
        "dosageInstruction": [
          {
            "timing": {
              "code": {
                "coding": [
                  {
                    "code": "BID"
                  }
                ]
              }
            },
            "route": {
              "coding": [
                {
                  "system": "http://terminology.hl7.org/CodeSystem/v3-RouteOfAdministration",
                  "code": "PO"
                }
              ]
            },
            "doseAndRate": [
              {
                "doseQuantity": {
                  "value": 400.0,
                  "unit": "mg",
                  "system": "http://unitsofmeasure.org",
                  "code": "mg"
                }
              }
            ]
          }
        ]
      },
      "request": {
        "method": "PUT",
        "url": "MedicationRequest/TW00233-med-request"
      }
    },
    {
      "resource": {
        "resourceType": "MedicationAdministration",
        "id": "TW00233-med-admin-1",
        "status": "completed",
        "medicationCodeableConcept": {
          "coding": [
            {
              "system": "http://www.whocc.no/atc",
              "code": "J01MA02",
              "display": "Ciprofloxacin"
            }
          ],
          "text": "Ciprofloxacin"
        },
        "subject": {
          "reference": "Patient/TW00233"
        },
        "effectiveDateTime": "2025-08-13T00:00:00+08:00",
        "dosage": {
          "route": {
            "coding": [
              {
                "system": "http://terminology.hl7.org/CodeSystem/v3-RouteOfAdministration",
                "code": "PO"
              }
            ]
          },
          "dose": {
            "value": 400.0,
            "unit": "mg",
            "system": "http://unitsofmeasure.org",
            "code": "mg"
          }
        }
      },
      "request": {
        "method": "PUT",
        "url": "MedicationAdministration/TW00233-med-admin-1"
      }
    },
    {
      "resource": {
        "resourceType": "MedicationAdministration",
        "id": "TW00233-med-admin-2",
        "status": "completed",
        "medicationCodeableConcept": {
          "coding": [
            {
              "system": "http://www.whocc.no/atc",
              "code": "J01MA02",
              "display": "Ciprofloxacin"
            }
          ],
          "text": "Ciprofloxacin"
        },
        "subject": {
          "reference": "Patient/TW00233"
        },
        "effectiveDateTime": "2025-08-14T00:00:00+08:00",
        "dosage": {
          "route": {
            "coding": [
              {
                "system": "http://terminology.hl7.org/CodeSystem/v3-RouteOfAdministration",
                "code": "PO"
              }
            ]
          },
          "dose": {
            "value": 400.0,
            "unit": "mg",
            "system": "http://unitsofmeasure.org",
            "code": "mg"
          }
        }
      },
      "request": {
        "method": "PUT",
        "url": "MedicationAdministration/TW00233-med-admin-2"
      }
    },
    {
      "resource": {
        "resourceType": "MedicationAdministration",
        "id": "TW00233-med-admin-3",
        "status": "completed",
        "medicationCodeableConcept": {
          "coding": [
            {
              "system": "http://www.whocc.no/atc",
              "code": "J01MA02",
              "display": "Ciprofloxacin"
            }
          ],
          "text": "Ciprofloxacin"
        },
        "subject": {
          "reference": "Patient/TW00233"
        },
        "effectiveDateTime": "2025-08-15T00:00:00+08:00",
        "dosage": {
          "route": {
            "coding": [
              {
                "system": "http://terminology.hl7.org/CodeSystem/v3-RouteOfAdministration",
                "code": "PO"
              }
            ]
          },
          "dose": {
            "value": 400.0,
            "unit": "mg",
            "system": "http://unitsofmeasure.org",
            "code": "mg"
          }
        }
      },
      "request": {
        "method": "PUT",
        "url": "MedicationAdministration/TW00233-med-admin-3"
      }
    },
    {
      "resource": {
        "resourceType": "Patient",
        "id": "TW00234",
        "identifier": [
          {
            "system": "urn:oid:2.16.886.101.20003.20001",
            "value": "TW00234"
          }
        ],
        "name": [
          {
            "text": "張雅婷",
            "family": "張",
            "given": [
              "雅婷"
            ]
          }
        ],
        "gender": "female",
        "birthDate": "1952-06-24",
        "address": [
          {
            "city": "金門縣",
            "country": "TW"
          }
        ]
      },
      "request": {
        "method": "PUT",
        "url": "Patient/TW00234"
      }
    },
    {
      "resource": {
        "resourceType": "Encounter",
        "id": "TW00234-encounter",
        "status": "finished",
        "class": {
          "system": "http://terminology.hl7.org/CodeSystem/v3-ActCode",
          "code": "ACUTE"
        },
        "subject": {
          "reference": "Patient/TW00234"
        },
        "period": {
          "start": "2025-06-30T00:00:00+08:00",
          "end": "2025-07-12T00:00:00+08:00"
        },
        "reasonCode": [
          {
            "coding": [
              {
                "system": "http://hl7.org/fhir/sid/icd-10",
                "code": "J20.9",
                "display": "Acute bronchitis, unspecified"
              }
            ],
            "text": "Acute bronchitis, unspecified"
          }
        ]
      },
      "request": {
        "method": "PUT",
        "url": "Encounter/TW00234-encounter"
      }
    },
    {
      "resource": {
        "resourceType": "MedicationRequest",
        "id": "TW00234-med-request",
        "status": "completed",
        "intent": "order",
        "medicationCodeableConcept": {
          "coding": [
            {
              "system": "http://www.whocc.no/atc",
              "code": "J01MA02",
              "display": "Ciprofloxacin"
            }
          ],
          "text": "Ciprofloxacin"
        },
        "subject": {
          "reference": "Patient/TW00234"
        },
        "encounter": {
          "reference": "Encounter/TW00234-encounter"
        },
        "authoredOn": "2025-06-30T00:00:00+08:00",
        "dosageInstruction": [
          {
            "timing": {
              "code": {
                "coding": [
                  {
                    "code": "BID"
                  }
                ]
              }
            },
            "route": {
              "coding": [
                {
                  "system": "http://terminology.hl7.org/CodeSystem/v3-RouteOfAdministration",
                  "code": "PO"
                }
              ]
            },
            "doseAndRate": [
              {
                "doseQuantity": {
                  "value": 400.0,
                  "unit": "mg",
                  "system": "http://unitsofmeasure.org",
                  "code": "mg"
                }
              }
            ]
          }
        ]
      },
      "request": {
        "method": "PUT",
        "url": "MedicationRequest/TW00234-med-request"
      }
    },
    {
      "resource": {
        "resourceType": "MedicationAdministration",
        "id": "TW00234-med-admin-1",
        "status": "completed",
        "medicationCodeableConcept": {
          "coding": [
            {
              "system": "http://www.whocc.no/atc",
              "code": "J01MA02",
              "display": "Ciprofloxacin"
            }
          ],
          "text": "Ciprofloxacin"
        },
        "subject": {
          "reference": "Patient/TW00234"
        },
        "effectiveDateTime": "2025-06-30T00:00:00+08:00",
        "dosage": {
          "route": {
            "coding": [
              {
                "system": "http://terminology.hl7.org/CodeSystem/v3-RouteOfAdministration",
                "code": "PO"
              }
            ]
          },
          "dose": {
            "value": 400.0,
            "unit": "mg",
            "system": "http://unitsofmeasure.org",
            "code": "mg"
          }
        }
      },
      "request": {
        "method": "PUT",
        "url": "MedicationAdministration/TW00234-med-admin-1"
      }
    },
    {
      "resource": {
        "resourceType": "MedicationAdministration",
        "id": "TW00234-med-admin-2",
        "status": "completed",
        "medicationCodeableConcept": {
          "coding": [
            {
              "system": "http://www.whocc.no/atc",
              "code": "J01MA02",
              "display": "Ciprofloxacin"
            }
          ],
          "text": "Ciprofloxacin"
        },
        "subject": {
          "reference": "Patient/TW00234"
        },
        "effectiveDateTime": "2025-07-01T00:00:00+08:00",
        "dosage": {
          "route": {
            "coding": [
              {
                "system": "http://terminology.hl7.org/CodeSystem/v3-RouteOfAdministration",
                "code": "PO"
              }
            ]
          },
          "dose": {
            "value": 400.0,
            "unit": "mg",
            "system": "http://unitsofmeasure.org",
            "code": "mg"
          }
        }
      },
      "request": {
        "method": "PUT",
        "url": "MedicationAdministration/TW00234-med-admin-2"
      }
    },
    {
      "resource": {
        "resourceType": "Patient",
        "id": "TW00202",
        "identifier": [
          {
            "system": "urn:oid:2.16.886.101.20003.20001",
            "value": "TW00202"
          }
        ],
        "name": [
          {
            "text": "徐文彬",
            "family": "徐",
            "given": [
              "文彬"
            ]
          }
        ],
        "gender": "male",
        "birthDate": "1986-08-17",
        "address": [
          {
            "city": "南投縣",
            "country": "TW"
          }
        ]
      },
      "request": {
        "method": "PUT",
        "url": "Patient/TW00202"
      }
    },
    {
      "resource": {
        "resourceType": "Encounter",
        "id": "TW00202-encounter",
        "status": "finished",
        "class": {
          "system": "http://terminology.hl7.org/CodeSystem/v3-ActCode",
          "code": "ACUTE"
        },
        "subject": {
          "reference": "Patient/TW00202"
        },
        "period": {
          "start": "2025-08-17T00:00:00+08:00",
          "end": "2025-08-24T00:00:00+08:00"
        },
        "reasonCode": [
          {
            "coding": [
              {
                "system": "http://hl7.org/fhir/sid/icd-10",
                "code": "A41.9",
                "display": "Sepsis, unspecified organism"
              }
            ],
            "text": "Sepsis, unspecified organism"
          }
        ]
      },
      "request": {
        "method": "PUT",
        "url": "Encounter/TW00202-encounter"
      }
    },
    {
      "resource": {
        "resourceType": "MedicationRequest",
        "id": "TW00202-med-request",
        "status": "completed",
        "intent": "order",
        "medicationCodeableConcept": {
          "coding": [
            {
              "system": "http://www.whocc.no/atc",
              "code": "J01MA02",
              "display": "Ciprofloxacin"
            }
          ],
          "text": "Ciprofloxacin"
        },
        "subject": {
          "reference": "Patient/TW00202"
        },
        "encounter": {
          "reference": "Encounter/TW00202-encounter"
        },
        "authoredOn": "2025-08-17T00:00:00+08:00",
        "dosageInstruction": [
          {
            "timing": {
              "code": {
                "coding": [
                  {
                    "code": "BID"
                  }
                ]
              }
            },
            "route": {
              "coding": [
                {
                  "system": "http://terminology.hl7.org/CodeSystem/v3-RouteOfAdministration",
                  "code": "PO"
                }
              ]
            },
            "doseAndRate": [
              {
                "doseQuantity": {
                  "value": 400.0,
                  "unit": "mg",
                  "system": "http://unitsofmeasure.org",
                  "code": "mg"
                }
              }
            ]
          }
        ]
      },
      "request": {
        "method": "PUT",
        "url": "MedicationRequest/TW00202-med-request"
      }
    },
    {
      "resource": {
        "resourceType": "MedicationAdministration",
        "id": "TW00202-med-admin-1",
        "status": "completed",
        "medicationCodeableConcept": {
          "coding": [
            {
              "system": "http://www.whocc.no/atc",
              "code": "J01MA02",
              "display": "Ciprofloxacin"
            }
          ],
          "text": "Ciprofloxacin"
        },
        "subject": {
          "reference": "Patient/TW00202"
        },
        "effectiveDateTime": "2025-08-17T00:00:00+08:00",
        "dosage": {
          "route": {
            "coding": [
              {
                "system": "http://terminology.hl7.org/CodeSystem/v3-RouteOfAdministration",
                "code": "PO"
              }
            ]
          },
          "dose": {
            "value": 400.0,
            "unit": "mg",
            "system": "http://unitsofmeasure.org",
            "code": "mg"
          }
        }
      },
      "request": {
        "method": "PUT",
        "url": "MedicationAdministration/TW00202-med-admin-1"
      }
    },
    {
      "resource": {
        "resourceType": "MedicationAdministration",
        "id": "TW00202-med-admin-2",
        "status": "completed",
        "medicationCodeableConcept": {
          "coding": [
            {
              "system": "http://www.whocc.no/atc",
              "code": "J01MA02",
              "display": "Ciprofloxacin"
            }
          ],
          "text": "Ciprofloxacin"
        },
        "subject": {
          "reference": "Patient/TW00202"
        },
        "effectiveDateTime": "2025-08-18T00:00:00+08:00",
        "dosage": {
          "route": {
            "coding": [
              {
                "system": "http://terminology.hl7.org/CodeSystem/v3-RouteOfAdministration",
                "code": "PO"
              }
            ]
          },
          "dose": {
            "value": 400.0,
            "unit": "mg",
            "system": "http://unitsofmeasure.org",
            "code": "mg"
          }
        }
      },
      "request": {
        "method": "PUT",
        "url": "MedicationAdministration/TW00202-med-admin-2"
      }
    },
    {
      "resource": {
        "resourceType": "MedicationAdministration",
        "id": "TW00202-med-admin-3",
        "status": "completed",
        "medicationCodeableConcept": {
          "coding": [
            {
              "system": "http://www.whocc.no/atc",
              "code": "J01MA02",
              "display": "Ciprofloxacin"
            }
          ],
          "text": "Ciprofloxacin"
        },
        "subject": {
          "reference": "Patient/TW00202"
        },
        "effectiveDateTime": "2025-08-19T00:00:00+08:00",
        "dosage": {
          "route": {
            "coding": [
              {
                "system": "http://terminology.hl7.org/CodeSystem/v3-RouteOfAdministration",
                "code": "PO"
              }
            ]
          },
          "dose": {
            "value": 400.0,
            "unit": "mg",
            "system": "http://unitsofmeasure.org",
            "code": "mg"
          }
        }
      },
      "request": {
        "method": "PUT",
        "url": "MedicationAdministration/TW00202-med-admin-3"
      }
    },
    {
      "resource": {
        "resourceType": "Patient",
        "id": "TW00244",
        "identifier": [
          {
            "system": "urn:oid:2.16.886.101.20003.20001",
            "value": "TW00244"
          }
        ],
        "name": [
          {
            "text": "劉建宏",
            "family": "劉",
            "given": [
              "建宏"
            ]
          }
        ],
        "gender": "male",
        "birthDate": "1965-05-08",
        "address": [
          {
            "city": "新北市",
            "country": "TW"
          }
        ]
      },
      "request": {
        "method": "PUT",
        "url": "Patient/TW00244"
      }
    },
    {
      "resource": {
        "resourceType": "Encounter",
        "id": "TW00244-encounter",
        "status": "finished",
        "class": {
          "system": "http://terminology.hl7.org/CodeSystem/v3-ActCode",
          "code": "IMP"
        },
        "subject": {
          "reference": "Patient/TW00244"
        },
        "period": {
          "start": "2024-12-25T00:00:00+08:00",
          "end": "2025-01-03T00:00:00+08:00"
        },
        "reasonCode": [
          {
            "coding": [
              {
                "system": "http://hl7.org/fhir/sid/icd-10",
                "code": "A41.9",
                "display": "Sepsis, unspecified organism"
              }
            ],
            "text": "Sepsis, unspecified organism"
          }
        ]
      },
      "request": {
        "method": "PUT",
        "url": "Encounter/TW00244-encounter"
      }
    },
    {
      "resource": {
        "resourceType": "MedicationRequest",
        "id": "TW00244-med-request",
        "status": "completed",
        "intent": "order",
        "medicationCodeableConcept": {
          "coding": [
            {
              "system": "http://www.whocc.no/atc",
              "code": "J01AA02",
              "display": "Doxycycline"
            }
          ],
          "text": "Doxycycline"
        },
        "subject": {
          "reference": "Patient/TW00244"
        },
        "encounter": {
          "reference": "Encounter/TW00244-encounter"
        },
        "authoredOn": "2024-12-25T00:00:00+08:00",
        "dosageInstruction": [
          {
            "timing": {
              "code": {
                "coding": [
                  {
                    "code": "BID"
                  }
                ]
              }
            },
            "route": {
              "coding": [
                {
                  "system": "http://terminology.hl7.org/CodeSystem/v3-RouteOfAdministration",
                  "code": "PO"
                }
              ]
            },
            "doseAndRate": [
              {
                "doseQuantity": {
                  "value": 50.0,
                  "unit": "mg",
                  "system": "http://unitsofmeasure.org",
                  "code": "mg"
                }
              }
            ]
          }
        ]
      },
      "request": {
        "method": "PUT",
        "url": "MedicationRequest/TW00244-med-request"
      }
    },
    {
      "resource": {
        "resourceType": "MedicationAdministration",
        "id": "TW00244-med-admin-1",
        "status": "completed",
        "medicationCodeableConcept": {
          "coding": [
            {
              "system": "http://www.whocc.no/atc",
              "code": "J01AA02",
              "display": "Doxycycline"
            }
          ],
          "text": "Doxycycline"
        },
        "subject": {
          "reference": "Patient/TW00244"
        },
        "effectiveDateTime": "2024-12-25T00:00:00+08:00",
        "dosage": {
          "route": {
            "coding": [
              {
                "system": "http://terminology.hl7.org/CodeSystem/v3-RouteOfAdministration",
                "code": "PO"
              }
            ]
          },
          "dose": {
            "value": 50.0,
            "unit": "mg",
            "system": "http://unitsofmeasure.org",
            "code": "mg"
          }
        }
      },
      "request": {
        "method": "PUT",
        "url": "MedicationAdministration/TW00244-med-admin-1"
      }
    },
    {
      "resource": {
        "resourceType": "MedicationAdministration",
        "id": "TW00244-med-admin-2",
        "status": "completed",
        "medicationCodeableConcept": {
          "coding": [
            {
              "system": "http://www.whocc.no/atc",
              "code": "J01AA02",
              "display": "Doxycycline"
            }
          ],
          "text": "Doxycycline"
        },
        "subject": {
          "reference": "Patient/TW00244"
        },
        "effectiveDateTime": "2024-12-26T00:00:00+08:00",
        "dosage": {
          "route": {
            "coding": [
              {
                "system": "http://terminology.hl7.org/CodeSystem/v3-RouteOfAdministration",
                "code": "PO"
              }
            ]
          },
          "dose": {
            "value": 50.0,
            "unit": "mg",
            "system": "http://unitsofmeasure.org",
            "code": "mg"
          }
        }
      },
      "request": {
        "method": "PUT",
        "url": "MedicationAdministration/TW00244-med-admin-2"
      }
    },
    {
      "resource": {
        "resourceType": "Patient",
        "id": "TW00216",
        "identifier": [
          {
            "system": "urn:oid:2.16.886.101.20003.20001",
            "value": "TW00216"
          }
        ],
        "name": [
          {
            "text": "黃政廷",
            "family": "黃",
            "given": [
              "政廷"
            ]
          }
        ],
        "gender": "male",
        "birthDate": "1965-11-10",
        "address": [
          {
            "city": "新竹市",
            "country": "TW"
          }
        ]
      },
      "request": {
        "method": "PUT",
        "url": "Patient/TW00216"
      }
    },
    {
      "resource": {
        "resourceType": "Encounter",
        "id": "TW00216-encounter",
        "status": "finished",
        "class": {
          "system": "http://terminology.hl7.org/CodeSystem/v3-ActCode",
          "code": "IMP"
        },
        "subject": {
          "reference": "Patient/TW00216"
        },
        "period": {
          "start": "2025-09-25T00:00:00+08:00",
          "end": "2025-10-04T00:00:00+08:00"
        },
        "reasonCode": [
          {
            "coding": [
              {
                "system": "http://hl7.org/fhir/sid/icd-10",
                "code": "L03.90",
                "display": "Cellulitis, unspecified"
              }
            ],
            "text": "Cellulitis, unspecified"
          }
        ]
      },
      "request": {
        "method": "PUT",
        "url": "Encounter/TW00216-encounter"
      }
    },
    {
      "resource": {
        "resourceType": "MedicationRequest",
        "id": "TW00216-med-request",
        "status": "completed",
        "intent": "order",
        "medicationCodeableConcept": {
          "coding": [
            {
              "system": "http://www.whocc.no/atc",
              "code": "J01DD04",
              "display": "Ceftriaxone"
            }
          ],
          "text": "Ceftriaxone"
        },
        "subject": {
          "reference": "Patient/TW00216"
        },
        "encounter": {
          "reference": "Encounter/TW00216-encounter"
        },
        "authoredOn": "2025-09-25T00:00:00+08:00",
        "dosageInstruction": [
          {
            "timing": {
              "code": {
                "coding": [
                  {
                    "code": "QD"
                  }
                ]
              }
            },
            "route": {
              "coding": [
                {
                  "system": "http://terminology.hl7.org/CodeSystem/v3-RouteOfAdministration",
                  "code": "IV"
                }
              ]
            },
            "doseAndRate": [
              {
                "doseQuantity": {
                  "value": 2000.0,
                  "unit": "mg",
                  "system": "http://unitsofmeasure.org",
                  "code": "mg"
                }
              }
            ]
          }
        ]
      },
      "request": {
        "method": "PUT",
        "url": "MedicationRequest/TW00216-med-request"
      }
    },
    {
      "resource": {
        "resourceType": "MedicationAdministration",
        "id": "TW00216-med-admin-1",
        "status": "completed",
        "medicationCodeableConcept": {
          "coding": [
            {
              "system": "http://www.whocc.no/atc",
              "code": "J01DD04",
              "display": "Ceftriaxone"
            }
          ],
          "text": "Ceftriaxone"
        },
        "subject": {
          "reference": "Patient/TW00216"
        },
        "effectiveDateTime": "2025-09-25T00:00:00+08:00",
        "dosage": {
          "route": {
            "coding": [
              {
                "system": "http://terminology.hl7.org/CodeSystem/v3-RouteOfAdministration",
                "code": "IV"
              }
            ]
          },
          "dose": {
            "value": 2000.0,
            "unit": "mg",
            "system": "http://unitsofmeasure.org",
            "code": "mg"
          }
        }
      },
      "request": {
        "method": "PUT",
        "url": "MedicationAdministration/TW00216-med-admin-1"
      }
    },
    {
      "resource": {
        "resourceType": "MedicationAdministration",
        "id": "TW00216-med-admin-2",
        "status": "completed",
        "medicationCodeableConcept": {
          "coding": [
            {
              "system": "http://www.whocc.no/atc",
              "code": "J01DD04",
              "display": "Ceftriaxone"
            }
          ],
          "text": "Ceftriaxone"
        },
        "subject": {
          "reference": "Patient/TW00216"
        },
        "effectiveDateTime": "2025-09-26T00:00:00+08:00",
        "dosage": {
          "route": {
            "coding": [
              {
                "system": "http://terminology.hl7.org/CodeSystem/v3-RouteOfAdministration",
                "code": "IV"
              }
            ]
          },
          "dose": {
            "value": 2000.0,
            "unit": "mg",
            "system": "http://unitsofmeasure.org",
            "code": "mg"
          }
        }
      },
      "request": {
        "method": "PUT",
        "url": "MedicationAdministration/TW00216-med-admin-2"
      }
    },
    {
      "resource": {
        "resourceType": "MedicationAdministration",
        "id": "TW00216-med-admin-3",
        "status": "completed",
        "medicationCodeableConcept": {
          "coding": [
            {
              "system": "http://www.whocc.no/atc",
              "code": "J01DD04",
              "display": "Ceftriaxone"
            }
          ],
          "text": "Ceftriaxone"
        },
        "subject": {
          "reference": "Patient/TW00216"
        },
        "effectiveDateTime": "2025-09-27T00:00:00+08:00",
        "dosage": {
          "route": {
            "coding": [
              {
                "system": "http://terminology.hl7.org/CodeSystem/v3-RouteOfAdministration",
                "code": "IV"
              }
            ]
          },
          "dose": {
            "value": 2000.0,
            "unit": "mg",
            "system": "http://unitsofmeasure.org",
            "code": "mg"
          }
        }
      },
      "request": {
        "method": "PUT",
        "url": "MedicationAdministration/TW00216-med-admin-3"
      }
    },
    {
      "resource": {
        "resourceType": "Patient",
        "id": "TW00222",
        "identifier": [
          {
            "system": "urn:oid:2.16.886.101.20003.20001",
            "value": "TW00222"
          }
        ],
        "name": [
          {
            "text": "洪雅雯",
            "family": "洪",
            "given": [
              "雅雯"
            ]
          }
        ],
        "gender": "female",
        "birthDate": "1956-04-26",
        "address": [
          {
            "city": "澎湖縣",
            "country": "TW"
          }
        ]
      },
      "request": {
        "method": "PUT",
        "url": "Patient/TW00222"
      }
    },
    {
      "resource": {
        "resourceType": "Encounter",
        "id": "TW00222-encounter",
        "status": "finished",
        "class": {
          "system": "http://terminology.hl7.org/CodeSystem/v3-ActCode",
          "code": "ACUTE"
        },
        "subject": {
          "reference": "Patient/TW00222"
        },
        "period": {
          "start": "2025-10-27T00:00:00+08:00",
          "end": "2025-11-04T00:00:00+08:00"
        },
        "reasonCode": [
          {
            "coding": [
              {
                "system": "http://hl7.org/fhir/sid/icd-10",
                "code": "J20.9",
                "display": "Acute bronchitis, unspecified"
              }
            ],
            "text": "Acute bronchitis, unspecified"
          }
        ]
      },
      "request": {
        "method": "PUT",
        "url": "Encounter/TW00222-encounter"
      }
    },
    {
      "resource": {
        "resourceType": "MedicationRequest",
        "id": "TW00222-med-request",
        "status": "completed",
        "intent": "order",
        "medicationCodeableConcept": {
          "coding": [
            {
              "system": "http://www.whocc.no/atc",
              "code": "J01AA02",
              "display": "Doxycycline"
            }
          ],
          "text": "Doxycycline"
        },
        "subject": {
          "reference": "Patient/TW00222"
        },
        "encounter": {
          "reference": "Encounter/TW00222-encounter"
        },
        "authoredOn": "2025-10-27T00:00:00+08:00",
        "dosageInstruction": [
          {
            "timing": {
              "code": {
                "coding": [
                  {
                    "code": "BID"
                  }
                ]
              }
            },
            "route": {
              "coding": [
                {
                  "system": "http://terminology.hl7.org/CodeSystem/v3-RouteOfAdministration",
                  "code": "PO"
                }
              ]
            },
            "doseAndRate": [
              {
                "doseQuantity": {
                  "value": 50.0,
                  "unit": "mg",
                  "system": "http://unitsofmeasure.org",
                  "code": "mg"
                }
              }
            ]
          }
        ]
      },
      "request": {
        "method": "PUT",
        "url": "MedicationRequest/TW00222-med-request"
      }
    },
    {
      "resource": {
        "resourceType": "MedicationAdministration",
        "id": "TW00222-med-admin-1",
        "status": "completed",
        "medicationCodeableConcept": {
          "coding": [
            {
              "system": "http://www.whocc.no/atc",
              "code": "J01AA02",
              "display": "Doxycycline"
            }
          ],
          "text": "Doxycycline"
        },
        "subject": {
          "reference": "Patient/TW00222"
        },
        "effectiveDateTime": "2025-10-27T00:00:00+08:00",
        "dosage": {
          "route": {
            "coding": [
              {
                "system": "http://terminology.hl7.org/CodeSystem/v3-RouteOfAdministration",
                "code": "PO"
              }
            ]
          },
          "dose": {
            "value": 50.0,
            "unit": "mg",
            "system": "http://unitsofmeasure.org",
            "code": "mg"
          }
        }
      },
      "request": {
        "method": "PUT",
        "url": "MedicationAdministration/TW00222-med-admin-1"
      }
    },
    {
      "resource": {
        "resourceType": "MedicationAdministration",
        "id": "TW00222-med-admin-2",
        "status": "completed",
        "medicationCodeableConcept": {
          "coding": [
            {
              "system": "http://www.whocc.no/atc",
              "code": "J01AA02",
              "display": "Doxycycline"
            }
          ],
          "text": "Doxycycline"
        },
        "subject": {
          "reference": "Patient/TW00222"
        },
        "effectiveDateTime": "2025-10-28T00:00:00+08:00",
        "dosage": {
          "route": {
            "coding": [
              {
                "system": "http://terminology.hl7.org/CodeSystem/v3-RouteOfAdministration",
                "code": "PO"
              }
            ]
          },
          "dose": {
            "value": 50.0,
            "unit": "mg",
            "system": "http://unitsofmeasure.org",
            "code": "mg"
          }
        }
      },
      "request": {
        "method": "PUT",
        "url": "MedicationAdministration/TW00222-med-admin-2"
      }
    },
    {
      "resource": {
        "resourceType": "MedicationAdministration",
        "id": "TW00222-med-admin-3",
        "status": "completed",
        "medicationCodeableConcept": {
          "coding": [
            {
              "system": "http://www.whocc.no/atc",
              "code": "J01AA02",
              "display": "Doxycycline"
            }
          ],
          "text": "Doxycycline"
        },
        "subject": {
          "reference": "Patient/TW00222"
        },
        "effectiveDateTime": "2025-10-29T00:00:00+08:00",
        "dosage": {
          "route": {
            "coding": [
              {
                "system": "http://terminology.hl7.org/CodeSystem/v3-RouteOfAdministration",
                "code": "PO"
              }
            ]
          },
          "dose": {
            "value": 50.0,
            "unit": "mg",
            "system": "http://unitsofmeasure.org",
            "code": "mg"
          }
        }
      },
      "request": {
        "method": "PUT",
        "url": "MedicationAdministration/TW00222-med-admin-3"
      }
    },
    {
      "resource": {
        "resourceType": "Patient",
        "id": "TW00203",
        "identifier": [
          {
            "system": "urn:oid:2.16.886.101.20003.20001",
            "value": "TW00203"
          }
        ],
        "name": [
          {
            "text": "曾淑惠",
            "family": "曾",
            "given": [
              "淑惠"
            ]
          }
        ],
        "gender": "female",
        "birthDate": "1991-10-23",
        "address": [
          {
            "city": "花蓮縣",
            "country": "TW"
          }
        ]
      },
      "request": {
        "method": "PUT",
        "url": "Patient/TW00203"
      }
    },
    {
      "resource": {
        "resourceType": "Encounter",
        "id": "TW00203-encounter",
        "status": "finished",
        "class": {
          "system": "http://terminology.hl7.org/CodeSystem/v3-ActCode",
          "code": "IMP"
        },
        "subject": {
          "reference": "Patient/TW00203"
        },
        "period": {
          "start": "2025-01-04T00:00:00+08:00",
          "end": "2025-01-11T00:00:00+08:00"
        },
        "reasonCode": [
          {
            "coding": [
              {
                "system": "http://hl7.org/fhir/sid/icd-10",
                "code": "N39.0",
                "display": "Urinary tract infection, site not specified"
              }
            ],
            "text": "Urinary tract infection, site not specified"
          }
        ]
      },
      "request": {
        "method": "PUT",
        "url": "Encounter/TW00203-encounter"
      }
    },
    {
      "resource": {
        "resourceType": "MedicationRequest",
        "id": "TW00203-med-request",
        "status": "completed",
        "intent": "order",
        "medicationCodeableConcept": {
          "coding": [
            {
              "system": "http://www.whocc.no/atc",
              "code": "J01AA02",
              "display": "Doxycycline"
            }
          ],
          "text": "Doxycycline"
        },
        "subject": {
          "reference": "Patient/TW00203"
        },
        "encounter": {
          "reference": "Encounter/TW00203-encounter"
        },
        "authoredOn": "2025-01-04T00:00:00+08:00",
        "dosageInstruction": [
          {
            "timing": {
              "code": {
                "coding": [
                  {
                    "code": "BID"
                  }
                ]
              }
            },
            "route": {
              "coding": [
                {
                  "system": "http://terminology.hl7.org/CodeSystem/v3-RouteOfAdministration",
                  "code": "PO"
                }
              ]
            },
            "doseAndRate": [
              {
                "doseQuantity": {
                  "value": 50.0,
                  "unit": "mg",
                  "system": "http://unitsofmeasure.org",
                  "code": "mg"
                }
              }
            ]
          }
        ]
      },
      "request": {
        "method": "PUT",
        "url": "MedicationRequest/TW00203-med-request"
      }
    },
    {
      "resource": {
        "resourceType": "MedicationAdministration",
        "id": "TW00203-med-admin-1",
        "status": "completed",
        "medicationCodeableConcept": {
          "coding": [
            {
              "system": "http://www.whocc.no/atc",
              "code": "J01AA02",
              "display": "Doxycycline"
            }
          ],
          "text": "Doxycycline"
        },
        "subject": {
          "reference": "Patient/TW00203"
        },
        "effectiveDateTime": "2025-01-04T00:00:00+08:00",
        "dosage": {
          "route": {
            "coding": [
              {
                "system": "http://terminology.hl7.org/CodeSystem/v3-RouteOfAdministration",
                "code": "PO"
              }
            ]
          },
          "dose": {
            "value": 50.0,
            "unit": "mg",
            "system": "http://unitsofmeasure.org",
            "code": "mg"
          }
        }
      },
      "request": {
        "method": "PUT",
        "url": "MedicationAdministration/TW00203-med-admin-1"
      }
    },
    {
      "resource": {
        "resourceType": "MedicationAdministration",
        "id": "TW00203-med-admin-2",
        "status": "completed",
        "medicationCodeableConcept": {
          "coding": [
            {
              "system": "http://www.whocc.no/atc",
              "code": "J01AA02",
              "display": "Doxycycline"
            }
          ],
          "text": "Doxycycline"
        },
        "subject": {
          "reference": "Patient/TW00203"
        },
        "effectiveDateTime": "2025-01-05T00:00:00+08:00",
        "dosage": {
          "route": {
            "coding": [
              {
                "system": "http://terminology.hl7.org/CodeSystem/v3-RouteOfAdministration",
                "code": "PO"
              }
            ]
          },
          "dose": {
            "value": 50.0,
            "unit": "mg",
            "system": "http://unitsofmeasure.org",
            "code": "mg"
          }
        }
      },
      "request": {
        "method": "PUT",
        "url": "MedicationAdministration/TW00203-med-admin-2"
      }
    },
    {
      "resource": {
        "resourceType": "MedicationAdministration",
        "id": "TW00203-med-admin-3",
        "status": "completed",
        "medicationCodeableConcept": {
          "coding": [
            {
              "system": "http://www.whocc.no/atc",
              "code": "J01AA02",
              "display": "Doxycycline"
            }
          ],
          "text": "Doxycycline"
        },
        "subject": {
          "reference": "Patient/TW00203"
        },
        "effectiveDateTime": "2025-01-06T00:00:00+08:00",
        "dosage": {
          "route": {
            "coding": [
              {
                "system": "http://terminology.hl7.org/CodeSystem/v3-RouteOfAdministration",
                "code": "PO"
              }
            ]
          },
          "dose": {
            "value": 50.0,
            "unit": "mg",
            "system": "http://unitsofmeasure.org",
            "code": "mg"
          }
        }
      },
      "request": {
        "method": "PUT",
        "url": "MedicationAdministration/TW00203-med-admin-3"
      }
    },
    {
      "resource": {
        "resourceType": "Patient",
        "id": "TW00241",
        "identifier": [
          {
            "system": "urn:oid:2.16.886.101.20003.20001",
            "value": "TW00241"
          }
        ],
        "name": [
          {
            "text": "許家銘",
            "family": "許",
            "given": [
              "家銘"
            ]
          }
        ],
        "gender": "male",
        "birthDate": "1970-02-16",
        "address": [
          {
            "city": "苗栗縣",
            "country": "TW"
          }
        ]
      },
      "request": {
        "method": "PUT",
        "url": "Patient/TW00241"
      }
    },
    {
      "resource": {
        "resourceType": "Encounter",
        "id": "TW00241-encounter",
        "status": "finished",
        "class": {
          "system": "http://terminology.hl7.org/CodeSystem/v3-ActCode",
          "code": "IMP"
        },
        "subject": {
          "reference": "Patient/TW00241"
        },
        "period": {
          "start": "2025-08-31T00:00:00+08:00",
          "end": "2025-09-03T00:00:00+08:00"
        },
        "reasonCode": [
          {
            "coding": [
              {
                "system": "http://hl7.org/fhir/sid/icd-10",
                "code": "J18.9",
                "display": "Pneumonia, unspecified organism"
              }
            ],
            "text": "Pneumonia, unspecified organism"
          }
        ]
      },
      "request": {
        "method": "PUT",
        "url": "Encounter/TW00241-encounter"
      }
    },
    {
      "resource": {
        "resourceType": "MedicationRequest",
        "id": "TW00241-med-request",
        "status": "completed",
        "intent": "order",
        "medicationCodeableConcept": {
          "coding": [
            {
              "system": "http://www.whocc.no/atc",
              "code": "J01DD04",
              "display": "Ceftriaxone"
            }
          ],
          "text": "Ceftriaxone"
        },
        "subject": {
          "reference": "Patient/TW00241"
        },
        "encounter": {
          "reference": "Encounter/TW00241-encounter"
        },
        "authoredOn": "2025-08-31T00:00:00+08:00",
        "dosageInstruction": [
          {
            "timing": {
              "code": {
                "coding": [
                  {
                    "code": "QD"
                  }
                ]
              }
            },
            "route": {
              "coding": [
                {
                  "system": "http://terminology.hl7.org/CodeSystem/v3-RouteOfAdministration",
                  "code": "IV"
                }
              ]
            },
            "doseAndRate": [
              {
                "doseQuantity": {
                  "value": 2000.0,
                  "unit": "mg",
                  "system": "http://unitsofmeasure.org",
                  "code": "mg"
                }
              }
            ]
          }
        ]
      },
      "request": {
        "method": "PUT",
        "url": "MedicationRequest/TW00241-med-request"
      }
    },
    {
      "resource": {
        "resourceType": "MedicationAdministration",
        "id": "TW00241-med-admin-1",
        "status": "completed",
        "medicationCodeableConcept": {
          "coding": [
            {
              "system": "http://www.whocc.no/atc",
              "code": "J01DD04",
              "display": "Ceftriaxone"
            }
          ],
          "text": "Ceftriaxone"
        },
        "subject": {
          "reference": "Patient/TW00241"
        },
        "effectiveDateTime": "2025-08-31T00:00:00+08:00",
        "dosage": {
          "route": {
            "coding": [
              {
                "system": "http://terminology.hl7.org/CodeSystem/v3-RouteOfAdministration",
                "code": "IV"
              }
            ]
          },
          "dose": {
            "value": 2000.0,
            "unit": "mg",
            "system": "http://unitsofmeasure.org",
            "code": "mg"
          }
        }
      },
      "request": {
        "method": "PUT",
        "url": "MedicationAdministration/TW00241-med-admin-1"
      }
    },
    {
      "resource": {
        "resourceType": "MedicationAdministration",
        "id": "TW00241-med-admin-2",
        "status": "completed",
        "medicationCodeableConcept": {
          "coding": [
            {
              "system": "http://www.whocc.no/atc",
              "code": "J01DD04",
              "display": "Ceftriaxone"
            }
          ],
          "text": "Ceftriaxone"
        },
        "subject": {
          "reference": "Patient/TW00241"
        },
        "effectiveDateTime": "2025-09-01T00:00:00+08:00",
        "dosage": {
          "route": {
            "coding": [
              {
                "system": "http://terminology.hl7.org/CodeSystem/v3-RouteOfAdministration",
                "code": "IV"
              }
            ]
          },
          "dose": {
            "value": 2000.0,
            "unit": "mg",
            "system": "http://unitsofmeasure.org",
            "code": "mg"
          }
        }
      },
      "request": {
        "method": "PUT",
        "url": "MedicationAdministration/TW00241-med-admin-2"
      }
    },
    {
      "resource": {
        "resourceType": "MedicationAdministration",
        "id": "TW00241-med-admin-3",
        "status": "completed",
        "medicationCodeableConcept": {
          "coding": [
            {
              "system": "http://www.whocc.no/atc",
              "code": "J01DD04",
              "display": "Ceftriaxone"
            }
          ],
          "text": "Ceftriaxone"
        },
        "subject": {
          "reference": "Patient/TW00241"
        },
        "effectiveDateTime": "2025-09-02T00:00:00+08:00",
        "dosage": {
          "route": {
            "coding": [
              {
                "system": "http://terminology.hl7.org/CodeSystem/v3-RouteOfAdministration",
                "code": "IV"
              }
            ]
          },
          "dose": {
            "value": 2000.0,
            "unit": "mg",
            "system": "http://unitsofmeasure.org",
            "code": "mg"
          }
        }
      },
      "request": {
        "method": "PUT",
        "url": "MedicationAdministration/TW00241-med-admin-3"
      }
    },
    {
      "resource": {
        "resourceType": "Patient",
        "id": "TW00204",
        "identifier": [
          {
            "system": "urn:oid:2.16.886.101.20003.20001",
            "value": "TW00204"
          }
        ],
        "name": [
          {
            "text": "郭俊宏",
            "family": "郭",
            "given": [
              "俊宏"
            ]
          }
        ],
        "gender": "male",
        "birthDate": "1961-02-18",
        "address": [
          {
            "city": "台東縣",
            "country": "TW"
          }
        ]
      },
      "request": {
        "method": "PUT",
        "url": "Patient/TW00204"
      }
    },
    {
      "resource": {
        "resourceType": "Encounter",
        "id": "TW00204-encounter",
        "status": "finished",
        "class": {
          "system": "http://terminology.hl7.org/CodeSystem/v3-ActCode",
          "code": "ACUTE"
        },
        "subject": {
          "reference": "Patient/TW00204"
        },
        "period": {
          "start": "2025-04-09T00:00:00+08:00",
          "end": "2025-04-18T00:00:00+08:00"
        },
        "reasonCode": [
          {
            "coding": [
              {
                "system": "http://hl7.org/fhir/sid/icd-10",
                "code": "J20.9",
                "display": "Acute bronchitis, unspecified"
              }
            ],
            "text": "Acute bronchitis, unspecified"
          }
        ]
      },
      "request": {
        "method": "PUT",
        "url": "Encounter/TW00204-encounter"
      }
    },
    {
      "resource": {
        "resourceType": "MedicationRequest",
        "id": "TW00204-med-request",
        "status": "completed",
        "intent": "order",
        "medicationCodeableConcept": {
          "coding": [
            {
              "system": "http://www.whocc.no/atc",
              "code": "J01DD04",
              "display": "Ceftriaxone"
            }
          ],
          "text": "Ceftriaxone"
        },
        "subject": {
          "reference": "Patient/TW00204"
        },
        "encounter": {
          "reference": "Encounter/TW00204-encounter"
        },
        "authoredOn": "2025-04-09T00:00:00+08:00",
        "dosageInstruction": [
          {
            "timing": {
              "code": {
                "coding": [
                  {
                    "code": "QD"
                  }
                ]
              }
            },
            "route": {
              "coding": [
                {
                  "system": "http://terminology.hl7.org/CodeSystem/v3-RouteOfAdministration",
                  "code": "IV"
                }
              ]
            },
            "doseAndRate": [
              {
                "doseQuantity": {
                  "value": 2000.0,
                  "unit": "mg",
                  "system": "http://unitsofmeasure.org",
                  "code": "mg"
                }
              }
            ]
          }
        ]
      },
      "request": {
        "method": "PUT",
        "url": "MedicationRequest/TW00204-med-request"
      }
    },
    {
      "resource": {
        "resourceType": "MedicationAdministration",
        "id": "TW00204-med-admin-1",
        "status": "completed",
        "medicationCodeableConcept": {
          "coding": [
            {
              "system": "http://www.whocc.no/atc",
              "code": "J01DD04",
              "display": "Ceftriaxone"
            }
          ],
          "text": "Ceftriaxone"
        },
        "subject": {
          "reference": "Patient/TW00204"
        },
        "effectiveDateTime": "2025-04-09T00:00:00+08:00",
        "dosage": {
          "route": {
            "coding": [
              {
                "system": "http://terminology.hl7.org/CodeSystem/v3-RouteOfAdministration",
                "code": "IV"
              }
            ]
          },
          "dose": {
            "value": 2000.0,
            "unit": "mg",
            "system": "http://unitsofmeasure.org",
            "code": "mg"
          }
        }
      },
      "request": {
        "method": "PUT",
        "url": "MedicationAdministration/TW00204-med-admin-1"
      }
    },
    {
      "resource": {
        "resourceType": "MedicationAdministration",
        "id": "TW00204-med-admin-2",
        "status": "completed",
        "medicationCodeableConcept": {
          "coding": [
            {
              "system": "http://www.whocc.no/atc",
              "code": "J01DD04",
              "display": "Ceftriaxone"
            }
          ],
          "text": "Ceftriaxone"
        },
        "subject": {
          "reference": "Patient/TW00204"
        },
        "effectiveDateTime": "2025-04-10T00:00:00+08:00",
        "dosage": {
          "route": {
            "coding": [
              {
                "system": "http://terminology.hl7.org/CodeSystem/v3-RouteOfAdministration",
                "code": "IV"
              }
            ]
          },
          "dose": {
            "value": 2000.0,
            "unit": "mg",
            "system": "http://unitsofmeasure.org",
            "code": "mg"
          }
        }
      },
      "request": {
        "method": "PUT",
        "url": "MedicationAdministration/TW00204-med-admin-2"
      }
    },
    {
      "resource": {
        "resourceType": "MedicationAdministration",
        "id": "TW00204-med-admin-3",
        "status": "completed",
        "medicationCodeableConcept": {
          "coding": [
            {
              "system": "http://www.whocc.no/atc",
              "code": "J01DD04",
              "display": "Ceftriaxone"
            }
          ],
          "text": "Ceftriaxone"
        },
        "subject": {
          "reference": "Patient/TW00204"
        },
        "effectiveDateTime": "2025-04-11T00:00:00+08:00",
        "dosage": {
          "route": {
            "coding": [
              {
                "system": "http://terminology.hl7.org/CodeSystem/v3-RouteOfAdministration",
                "code": "IV"
              }
            ]
          },
          "dose": {
            "value": 2000.0,
            "unit": "mg",
            "system": "http://unitsofmeasure.org",
            "code": "mg"
          }
        }
      },
      "request": {
        "method": "PUT",
        "url": "MedicationAdministration/TW00204-med-admin-3"
      }
    },
    {
      "resource": {
        "resourceType": "Patient",
        "id": "TW00218",
        "identifier": [
          {
            "system": "urn:oid:2.16.886.101.20003.20001",
            "value": "TW00218"
          }
        ],
        "name": [
          {
            "text": "洪淑芬",
            "family": "洪",
            "given": [
              "淑芬"
            ]
          }
        ],
        "gender": "female",
        "birthDate": "2006-08-23",
        "address": [
          {
            "city": "連江縣",
            "country": "TW"
          }
        ]
      },
      "request": {
        "method": "PUT",
        "url": "Patient/TW00218"
      }
    },
    {
      "resource": {
        "resourceType": "Encounter",
        "id": "TW00218-encounter",
        "status": "finished",
        "class": {
          "system": "http://terminology.hl7.org/CodeSystem/v3-ActCode",
          "code": "ACUTE"
        },
        "subject": {
          "reference": "Patient/TW00218"
        },
        "period": {
          "start": "2025-01-12T00:00:00+08:00",
          "end": "2025-01-19T00:00:00+08:00"
        },
        "reasonCode": [
          {
            "coding": [
              {
                "system": "http://hl7.org/fhir/sid/icd-10",
                "code": "J20.9",
                "display": "Acute bronchitis, unspecified"
              }
            ],
            "text": "Acute bronchitis, unspecified"
          }
        ]
      },
      "request": {
        "method": "PUT",
        "url": "Encounter/TW00218-encounter"
      }
    },
    {
      "resource": {
        "resourceType": "MedicationRequest",
        "id": "TW00218-med-request",
        "status": "completed",
        "intent": "order",
        "medicationCodeableConcept": {
          "coding": [
            {
              "system": "http://www.whocc.no/atc",
              "code": "J01CA04",
              "display": "Amoxicillin"
            }
          ],
          "text": "Amoxicillin"
        },
        "subject": {
          "reference": "Patient/TW00218"
        },
        "encounter": {
          "reference": "Encounter/TW00218-encounter"
        },
        "authoredOn": "2025-01-12T00:00:00+08:00",
        "dosageInstruction": [
          {
            "timing": {
              "code": {
                "coding": [
                  {
                    "code": "TID"
                  }
                ]
              }
            },
            "route": {
              "coding": [
                {
                  "system": "http://terminology.hl7.org/CodeSystem/v3-RouteOfAdministration",
                  "code": "PO"
                }
              ]
            },
            "doseAndRate": [
              {
                "doseQuantity": {
                  "value": 333.3333333333333,
                  "unit": "mg",
                  "system": "http://unitsofmeasure.org",
                  "code": "mg"
                }
              }
            ]
          }
        ]
      },
      "request": {
        "method": "PUT",
        "url": "MedicationRequest/TW00218-med-request"
      }
    },
    {
      "resource": {
        "resourceType": "MedicationAdministration",
        "id": "TW00218-med-admin-1",
        "status": "completed",
        "medicationCodeableConcept": {
          "coding": [
            {
              "system": "http://www.whocc.no/atc",
              "code": "J01CA04",
              "display": "Amoxicillin"
            }
          ],
          "text": "Amoxicillin"
        },
        "subject": {
          "reference": "Patient/TW00218"
        },
        "effectiveDateTime": "2025-01-12T00:00:00+08:00",
        "dosage": {
          "route": {
            "coding": [
              {
                "system": "http://terminology.hl7.org/CodeSystem/v3-RouteOfAdministration",
                "code": "PO"
              }
            ]
          },
          "dose": {
            "value": 333.3333333333333,
            "unit": "mg",
            "system": "http://unitsofmeasure.org",
            "code": "mg"
          }
        }
      },
      "request": {
        "method": "PUT",
        "url": "MedicationAdministration/TW00218-med-admin-1"
      }
    },
    {
      "resource": {
        "resourceType": "MedicationAdministration",
        "id": "TW00218-med-admin-2",
        "status": "completed",
        "medicationCodeableConcept": {
          "coding": [
            {
              "system": "http://www.whocc.no/atc",
              "code": "J01CA04",
              "display": "Amoxicillin"
            }
          ],
          "text": "Amoxicillin"
        },
        "subject": {
          "reference": "Patient/TW00218"
        },
        "effectiveDateTime": "2025-01-13T00:00:00+08:00",
        "dosage": {
          "route": {
            "coding": [
              {
                "system": "http://terminology.hl7.org/CodeSystem/v3-RouteOfAdministration",
                "code": "PO"
              }
            ]
          },
          "dose": {
            "value": 333.3333333333333,
            "unit": "mg",
            "system": "http://unitsofmeasure.org",
            "code": "mg"
          }
        }
      },
      "request": {
        "method": "PUT",
        "url": "MedicationAdministration/TW00218-med-admin-2"
      }
    },
    {
      "resource": {
        "resourceType": "Patient",
        "id": "TW00225",
        "identifier": [
          {
            "system": "urn:oid:2.16.886.101.20003.20001",
            "value": "TW00225"
          }
        ],
        "name": [
          {
            "text": "劉明哲",
            "family": "劉",
            "given": [
              "明哲"
            ]
          }
        ],
        "gender": "male",
        "birthDate": "1991-05-14",
        "address": [
          {
            "city": "雲林縣",
            "country": "TW"
          }
        ]
      },
      "request": {
        "method": "PUT",
        "url": "Patient/TW00225"
      }
    },
    {
      "resource": {
        "resourceType": "Encounter",
        "id": "TW00225-encounter",
        "status": "finished",
        "class": {
          "system": "http://terminology.hl7.org/CodeSystem/v3-ActCode",
          "code": "ACUTE"
        },
        "subject": {
          "reference": "Patient/TW00225"
        },
        "period": {
          "start": "2025-04-30T00:00:00+08:00",
          "end": "2025-05-06T00:00:00+08:00"
        },
        "reasonCode": [
          {
            "coding": [
              {
                "system": "http://hl7.org/fhir/sid/icd-10",
                "code": "J20.9",
                "display": "Acute bronchitis, unspecified"
              }
            ],
            "text": "Acute bronchitis, unspecified"
          }
        ]
      },
      "request": {
        "method": "PUT",
        "url": "Encounter/TW00225-encounter"
      }
    },
    {
      "resource": {
        "resourceType": "MedicationRequest",
        "id": "TW00225-med-request",
        "status": "completed",
        "intent": "order",
        "medicationCodeableConcept": {
          "coding": [
            {
              "system": "http://www.whocc.no/atc",
              "code": "J01AA02",
              "display": "Doxycycline"
            }
          ],
          "text": "Doxycycline"
        },
        "subject": {
          "reference": "Patient/TW00225"
        },
        "encounter": {
          "reference": "Encounter/TW00225-encounter"
        },
        "authoredOn": "2025-04-30T00:00:00+08:00",
        "dosageInstruction": [
          {
            "timing": {
              "code": {
                "coding": [
                  {
                    "code": "BID"
                  }
                ]
              }
            },
            "route": {
              "coding": [
                {
                  "system": "http://terminology.hl7.org/CodeSystem/v3-RouteOfAdministration",
                  "code": "PO"
                }
              ]
            },
            "doseAndRate": [
              {
                "doseQuantity": {
                  "value": 50.0,
                  "unit": "mg",
                  "system": "http://unitsofmeasure.org",
                  "code": "mg"
                }
              }
            ]
          }
        ]
      },
      "request": {
        "method": "PUT",
        "url": "MedicationRequest/TW00225-med-request"
      }
    },
    {
      "resource": {
        "resourceType": "MedicationAdministration",
        "id": "TW00225-med-admin-1",
        "status": "completed",
        "medicationCodeableConcept": {
          "coding": [
            {
              "system": "http://www.whocc.no/atc",
              "code": "J01AA02",
              "display": "Doxycycline"
            }
          ],
          "text": "Doxycycline"
        },
        "subject": {
          "reference": "Patient/TW00225"
        },
        "effectiveDateTime": "2025-04-30T00:00:00+08:00",
        "dosage": {
          "route": {
            "coding": [
              {
                "system": "http://terminology.hl7.org/CodeSystem/v3-RouteOfAdministration",
                "code": "PO"
              }
            ]
          },
          "dose": {
            "value": 50.0,
            "unit": "mg",
            "system": "http://unitsofmeasure.org",
            "code": "mg"
          }
        }
      },
      "request": {
        "method": "PUT",
        "url": "MedicationAdministration/TW00225-med-admin-1"
      }
    },
    {
      "resource": {
        "resourceType": "MedicationAdministration",
        "id": "TW00225-med-admin-2",
        "status": "completed",
        "medicationCodeableConcept": {
          "coding": [
            {
              "system": "http://www.whocc.no/atc",
              "code": "J01AA02",
              "display": "Doxycycline"
            }
          ],
          "text": "Doxycycline"
        },
        "subject": {
          "reference": "Patient/TW00225"
        },
        "effectiveDateTime": "2025-05-01T00:00:00+08:00",
        "dosage": {
          "route": {
            "coding": [
              {
                "system": "http://terminology.hl7.org/CodeSystem/v3-RouteOfAdministration",
                "code": "PO"
              }
            ]
          },
          "dose": {
            "value": 50.0,
            "unit": "mg",
            "system": "http://unitsofmeasure.org",
            "code": "mg"
          }
        }
      },
      "request": {
        "method": "PUT",
        "url": "MedicationAdministration/TW00225-med-admin-2"
      }
    },
    {
      "resource": {
        "resourceType": "MedicationAdministration",
        "id": "TW00225-med-admin-3",
        "status": "completed",
        "medicationCodeableConcept": {
          "coding": [
            {
              "system": "http://www.whocc.no/atc",
              "code": "J01AA02",
              "display": "Doxycycline"
            }
          ],
          "text": "Doxycycline"
        },
        "subject": {
          "reference": "Patient/TW00225"
        },
        "effectiveDateTime": "2025-05-02T00:00:00+08:00",
        "dosage": {
          "route": {
            "coding": [
              {
                "system": "http://terminology.hl7.org/CodeSystem/v3-RouteOfAdministration",
                "code": "PO"
              }
            ]
          },
          "dose": {
            "value": 50.0,
            "unit": "mg",
            "system": "http://unitsofmeasure.org",
            "code": "mg"
          }
        }
      },
      "request": {
        "method": "PUT",
        "url": "MedicationAdministration/TW00225-med-admin-3"
      }
    },
    {
      "resource": {
        "resourceType": "Patient",
        "id": "TW00217",
        "identifier": [
          {
            "system": "urn:oid:2.16.886.101.20003.20001",
            "value": "TW00217"
          }
        ],
        "name": [
          {
            "text": "曾明哲",
            "family": "曾",
            "given": [
              "明哲"
            ]
          }
        ],
        "gender": "male",
        "birthDate": "2000-02-14",
        "address": [
          {
            "city": "澎湖縣",
            "country": "TW"
          }
        ]
      },
      "request": {
        "method": "PUT",
        "url": "Patient/TW00217"
      }
    },
    {
      "resource": {
        "resourceType": "Encounter",
        "id": "TW00217-encounter",
        "status": "finished",
        "class": {
          "system": "http://terminology.hl7.org/CodeSystem/v3-ActCode",
          "code": "ACUTE"
        },
        "subject": {
          "reference": "Patient/TW00217"
        },
        "period": {
          "start": "2025-07-30T00:00:00+08:00",
          "end": "2025-08-08T00:00:00+08:00"
        },
        "reasonCode": [
          {
            "coding": [
              {
                "system": "http://hl7.org/fhir/sid/icd-10",
                "code": "A41.9",
                "display": "Sepsis, unspecified organism"
              }
            ],
            "text": "Sepsis, unspecified organism"
          }
        ]
      },
      "request": {
        "method": "PUT",
        "url": "Encounter/TW00217-encounter"
      }
    },
    {
      "resource": {
        "resourceType": "MedicationRequest",
        "id": "TW00217-med-request",
        "status": "completed",
        "intent": "order",
        "medicationCodeableConcept": {
          "coding": [
            {
              "system": "http://www.whocc.no/atc",
              "code": "J01CA04",
              "display": "Amoxicillin"
            }
          ],
          "text": "Amoxicillin"
        },
        "subject": {
          "reference": "Patient/TW00217"
        },
        "encounter": {
          "reference": "Encounter/TW00217-encounter"
        },
        "authoredOn": "2025-07-30T00:00:00+08:00",
        "dosageInstruction": [
          {
            "timing": {
              "code": {
                "coding": [
                  {
                    "code": "TID"
                  }
                ]
              }
            },
            "route": {
              "coding": [
                {
                  "system": "http://terminology.hl7.org/CodeSystem/v3-RouteOfAdministration",
                  "code": "PO"
                }
              ]
            },
            "doseAndRate": [
              {
                "doseQuantity": {
                  "value": 333.3333333333333,
                  "unit": "mg",
                  "system": "http://unitsofmeasure.org",
                  "code": "mg"
                }
              }
            ]
          }
        ]
      },
      "request": {
        "method": "PUT",
        "url": "MedicationRequest/TW00217-med-request"
      }
    },
    {
      "resource": {
        "resourceType": "MedicationAdministration",
        "id": "TW00217-med-admin-1",
        "status": "completed",
        "medicationCodeableConcept": {
          "coding": [
            {
              "system": "http://www.whocc.no/atc",
              "code": "J01CA04",
              "display": "Amoxicillin"
            }
          ],
          "text": "Amoxicillin"
        },
        "subject": {
          "reference": "Patient/TW00217"
        },
        "effectiveDateTime": "2025-07-30T00:00:00+08:00",
        "dosage": {
          "route": {
            "coding": [
              {
                "system": "http://terminology.hl7.org/CodeSystem/v3-RouteOfAdministration",
                "code": "PO"
              }
            ]
          },
          "dose": {
            "value": 333.3333333333333,
            "unit": "mg",
            "system": "http://unitsofmeasure.org",
            "code": "mg"
          }
        }
      },
      "request": {
        "method": "PUT",
        "url": "MedicationAdministration/TW00217-med-admin-1"
      }
    },
    {
      "resource": {
        "resourceType": "MedicationAdministration",
        "id": "TW00217-med-admin-2",
        "status": "completed",
        "medicationCodeableConcept": {
          "coding": [
            {
              "system": "http://www.whocc.no/atc",
              "code": "J01CA04",
              "display": "Amoxicillin"
            }
          ],
          "text": "Amoxicillin"
        },
        "subject": {
          "reference": "Patient/TW00217"
        },
        "effectiveDateTime": "2025-07-31T00:00:00+08:00",
        "dosage": {
          "route": {
            "coding": [
              {
                "system": "http://terminology.hl7.org/CodeSystem/v3-RouteOfAdministration",
                "code": "PO"
              }
            ]
          },
          "dose": {
            "value": 333.3333333333333,
            "unit": "mg",
            "system": "http://unitsofmeasure.org",
            "code": "mg"
          }
        }
      },
      "request": {
        "method": "PUT",
        "url": "MedicationAdministration/TW00217-med-admin-2"
      }
    },
    {
      "resource": {
        "resourceType": "Patient",
        "id": "TW00224",
        "identifier": [
          {
            "system": "urn:oid:2.16.886.101.20003.20001",
            "value": "TW00224"
          }
        ],
        "name": [
          {
            "text": "郭淑娟",
            "family": "郭",
            "given": [
              "淑娟"
            ]
          }
        ],
        "gender": "female",
        "birthDate": "1996-08-12",
        "address": [
          {
            "city": "彰化縣",
            "country": "TW"
          }
        ]
      },
      "request": {
        "method": "PUT",
        "url": "Patient/TW00224"
      }
    },
    {
      "resource": {
        "resourceType": "Encounter",
        "id": "TW00224-encounter",
        "status": "finished",
        "class": {
          "system": "http://terminology.hl7.org/CodeSystem/v3-ActCode",
          "code": "IMP"
        },
        "subject": {
          "reference": "Patient/TW00224"
        },
        "period": {
          "start": "2025-10-03T00:00:00+08:00",
          "end": "2025-10-12T00:00:00+08:00"
        },
        "reasonCode": [
          {
            "coding": [
              {
                "system": "http://hl7.org/fhir/sid/icd-10",
                "code": "L03.90",
                "display": "Cellulitis, unspecified"
              }
            ],
            "text": "Cellulitis, unspecified"
          }
        ]
      },
      "request": {
        "method": "PUT",
        "url": "Encounter/TW00224-encounter"
      }
    },
    {
      "resource": {
        "resourceType": "MedicationRequest",
        "id": "TW00224-med-request",
        "status": "completed",
        "intent": "order",
        "medicationCodeableConcept": {
          "coding": [
            {
              "system": "http://www.whocc.no/atc",
              "code": "J01DH02",
              "display": "Meropenem"
            }
          ],
          "text": "Meropenem"
        },
        "subject": {
          "reference": "Patient/TW00224"
        },
        "encounter": {
          "reference": "Encounter/TW00224-encounter"
        },
        "authoredOn": "2025-10-03T00:00:00+08:00",
        "dosageInstruction": [
          {
            "timing": {
              "code": {
                "coding": [
                  {
                    "code": "TID"
                  }
                ]
              }
            },
            "route": {
              "coding": [
                {
                  "system": "http://terminology.hl7.org/CodeSystem/v3-RouteOfAdministration",
                  "code": "IV"
                }
              ]
            },
            "doseAndRate": [
              {
                "doseQuantity": {
                  "value": 1000.0,
                  "unit": "mg",
                  "system": "http://unitsofmeasure.org",
                  "code": "mg"
                }
              }
            ]
          }
        ]
      },
      "request": {
        "method": "PUT",
        "url": "MedicationRequest/TW00224-med-request"
      }
    },
    {
      "resource": {
        "resourceType": "MedicationAdministration",
        "id": "TW00224-med-admin-1",
        "status": "completed",
        "medicationCodeableConcept": {
          "coding": [
            {
              "system": "http://www.whocc.no/atc",
              "code": "J01DH02",
              "display": "Meropenem"
            }
          ],
          "text": "Meropenem"
        },
        "subject": {
          "reference": "Patient/TW00224"
        },
        "effectiveDateTime": "2025-10-03T00:00:00+08:00",
        "dosage": {
          "route": {
            "coding": [
              {
                "system": "http://terminology.hl7.org/CodeSystem/v3-RouteOfAdministration",
                "code": "IV"
              }
            ]
          },
          "dose": {
            "value": 1000.0,
            "unit": "mg",
            "system": "http://unitsofmeasure.org",
            "code": "mg"
          }
        }
      },
      "request": {
        "method": "PUT",
        "url": "MedicationAdministration/TW00224-med-admin-1"
      }
    },
    {
      "resource": {
        "resourceType": "MedicationAdministration",
        "id": "TW00224-med-admin-2",
        "status": "completed",
        "medicationCodeableConcept": {
          "coding": [
            {
              "system": "http://www.whocc.no/atc",
              "code": "J01DH02",
              "display": "Meropenem"
            }
          ],
          "text": "Meropenem"
        },
        "subject": {
          "reference": "Patient/TW00224"
        },
        "effectiveDateTime": "2025-10-04T00:00:00+08:00",
        "dosage": {
          "route": {
            "coding": [
              {
                "system": "http://terminology.hl7.org/CodeSystem/v3-RouteOfAdministration",
                "code": "IV"
              }
            ]
          },
          "dose": {
            "value": 1000.0,
            "unit": "mg",
            "system": "http://unitsofmeasure.org",
            "code": "mg"
          }
        }
      },
      "request": {
        "method": "PUT",
        "url": "MedicationAdministration/TW00224-med-admin-2"
      }
    },
    {
      "resource": {
        "resourceType": "Patient",
        "id": "TW00215",
        "identifier": [
          {
            "system": "urn:oid:2.16.886.101.20003.20001",
            "value": "TW00215"
          }
        ],
        "name": [
          {
            "text": "黃雅婷",
            "family": "黃",
            "given": [
              "雅婷"
            ]
          }
        ],
        "gender": "female",
        "birthDate": "1983-03-22",
        "address": [
          {
            "city": "高雄市",
            "country": "TW"
          }
        ]
      },
      "request": {
        "method": "PUT",
        "url": "Patient/TW00215"
      }
    },
    {
      "resource": {
        "resourceType": "Encounter",
        "id": "TW00215-encounter",
        "status": "finished",
        "class": {
          "system": "http://terminology.hl7.org/CodeSystem/v3-ActCode",
          "code": "ACUTE"
        },
        "subject": {
          "reference": "Patient/TW00215"
        },
        "period": {
          "start": "2025-06-15T00:00:00+08:00",
          "end": "2025-06-27T00:00:00+08:00"
        },
        "reasonCode": [
          {
            "coding": [
              {
                "system": "http://hl7.org/fhir/sid/icd-10",
                "code": "N39.0",
                "display": "Urinary tract infection, site not specified"
              }
            ],
            "text": "Urinary tract infection, site not specified"
          }
        ]
      },
      "request": {
        "method": "PUT",
        "url": "Encounter/TW00215-encounter"
      }
    },
    {
      "resource": {
        "resourceType": "MedicationRequest",
        "id": "TW00215-med-request",
        "status": "completed",
        "intent": "order",
        "medicationCodeableConcept": {
          "coding": [
            {
              "system": "http://www.whocc.no/atc",
              "code": "J01AA02",
              "display": "Doxycycline"
            }
          ],
          "text": "Doxycycline"
        },
        "subject": {
          "reference": "Patient/TW00215"
        },
        "encounter": {
          "reference": "Encounter/TW00215-encounter"
        },
        "authoredOn": "2025-06-15T00:00:00+08:00",
        "dosageInstruction": [
          {
            "timing": {
              "code": {
                "coding": [
                  {
                    "code": "BID"
                  }
                ]
              }
            },
            "route": {
              "coding": [
                {
                  "system": "http://terminology.hl7.org/CodeSystem/v3-RouteOfAdministration",
                  "code": "PO"
                }
              ]
            },
            "doseAndRate": [
              {
                "doseQuantity": {
                  "value": 50.0,
                  "unit": "mg",
                  "system": "http://unitsofmeasure.org",
                  "code": "mg"
                }
              }
            ]
          }
        ]
      },
      "request": {
        "method": "PUT",
        "url": "MedicationRequest/TW00215-med-request"
      }
    },
    {
      "resource": {
        "resourceType": "MedicationAdministration",
        "id": "TW00215-med-admin-1",
        "status": "completed",
        "medicationCodeableConcept": {
          "coding": [
            {
              "system": "http://www.whocc.no/atc",
              "code": "J01AA02",
              "display": "Doxycycline"
            }
          ],
          "text": "Doxycycline"
        },
        "subject": {
          "reference": "Patient/TW00215"
        },
        "effectiveDateTime": "2025-06-15T00:00:00+08:00",
        "dosage": {
          "route": {
            "coding": [
              {
                "system": "http://terminology.hl7.org/CodeSystem/v3-RouteOfAdministration",
                "code": "PO"
              }
            ]
          },
          "dose": {
            "value": 50.0,
            "unit": "mg",
            "system": "http://unitsofmeasure.org",
            "code": "mg"
          }
        }
      },
      "request": {
        "method": "PUT",
        "url": "MedicationAdministration/TW00215-med-admin-1"
      }
    },
    {
      "resource": {
        "resourceType": "MedicationAdministration",
        "id": "TW00215-med-admin-2",
        "status": "completed",
        "medicationCodeableConcept": {
          "coding": [
            {
              "system": "http://www.whocc.no/atc",
              "code": "J01AA02",
              "display": "Doxycycline"
            }
          ],
          "text": "Doxycycline"
        },
        "subject": {
          "reference": "Patient/TW00215"
        },
        "effectiveDateTime": "2025-06-16T00:00:00+08:00",
        "dosage": {
          "route": {
            "coding": [
              {
                "system": "http://terminology.hl7.org/CodeSystem/v3-RouteOfAdministration",
                "code": "PO"
              }
            ]
          },
          "dose": {
            "value": 50.0,
            "unit": "mg",
            "system": "http://unitsofmeasure.org",
            "code": "mg"
          }
        }
      },
      "request": {
        "method": "PUT",
        "url": "MedicationAdministration/TW00215-med-admin-2"
      }
    },
    {
      "resource": {
        "resourceType": "Patient",
        "id": "TW00206",
        "identifier": [
          {
            "system": "urn:oid:2.16.886.101.20003.20001",
            "value": "TW00206"
          }
        ],
        "name": [
          {
            "text": "邱淑娟",
            "family": "邱",
            "given": [
              "淑娟"
            ]
          }
        ],
        "gender": "female",
        "birthDate": "1989-03-04",
        "address": [
          {
            "city": "台中市",
            "country": "TW"
          }
        ]
      },
      "request": {
        "method": "PUT",
        "url": "Patient/TW00206"
      }
    },
    {
      "resource": {
        "resourceType": "Encounter",
        "id": "TW00206-encounter",
        "status": "finished",
        "class": {
          "system": "http://terminology.hl7.org/CodeSystem/v3-ActCode",
          "code": "ACUTE"
        },
        "subject": {
          "reference": "Patient/TW00206"
        },
        "period": {
          "start": "2025-09-12T00:00:00+08:00",
          "end": "2025-09-26T00:00:00+08:00"
        },
        "reasonCode": [
          {
            "coding": [
              {
                "system": "http://hl7.org/fhir/sid/icd-10",
                "code": "J18.9",
                "display": "Pneumonia, unspecified organism"
              }
            ],
            "text": "Pneumonia, unspecified organism"
          }
        ]
      },
      "request": {
        "method": "PUT",
        "url": "Encounter/TW00206-encounter"
      }
    },
    {
      "resource": {
        "resourceType": "MedicationRequest",
        "id": "TW00206-med-request",
        "status": "completed",
        "intent": "order",
        "medicationCodeableConcept": {
          "coding": [
            {
              "system": "http://www.whocc.no/atc",
              "code": "J01CA04",
              "display": "Amoxicillin"
            }
          ],
          "text": "Amoxicillin"
        },
        "subject": {
          "reference": "Patient/TW00206"
        },
        "encounter": {
          "reference": "Encounter/TW00206-encounter"
        },
        "authoredOn": "2025-09-12T00:00:00+08:00",
        "dosageInstruction": [
          {
            "timing": {
              "code": {
                "coding": [
                  {
                    "code": "TID"
                  }
                ]
              }
            },
            "route": {
              "coding": [
                {
                  "system": "http://terminology.hl7.org/CodeSystem/v3-RouteOfAdministration",
                  "code": "PO"
                }
              ]
            },
            "doseAndRate": [
              {
                "doseQuantity": {
                  "value": 333.3333333333333,
                  "unit": "mg",
                  "system": "http://unitsofmeasure.org",
                  "code": "mg"
                }
              }
            ]
          }
        ]
      },
      "request": {
        "method": "PUT",
        "url": "MedicationRequest/TW00206-med-request"
      }
    },
    {
      "resource": {
        "resourceType": "MedicationAdministration",
        "id": "TW00206-med-admin-1",
        "status": "completed",
        "medicationCodeableConcept": {
          "coding": [
            {
              "system": "http://www.whocc.no/atc",
              "code": "J01CA04",
              "display": "Amoxicillin"
            }
          ],
          "text": "Amoxicillin"
        },
        "subject": {
          "reference": "Patient/TW00206"
        },
        "effectiveDateTime": "2025-09-12T00:00:00+08:00",
        "dosage": {
          "route": {
            "coding": [
              {
                "system": "http://terminology.hl7.org/CodeSystem/v3-RouteOfAdministration",
                "code": "PO"
              }
            ]
          },
          "dose": {
            "value": 333.3333333333333,
            "unit": "mg",
            "system": "http://unitsofmeasure.org",
            "code": "mg"
          }
        }
      },
      "request": {
        "method": "PUT",
        "url": "MedicationAdministration/TW00206-med-admin-1"
      }
    },
    {
      "resource": {
        "resourceType": "MedicationAdministration",
        "id": "TW00206-med-admin-2",
        "status": "completed",
        "medicationCodeableConcept": {
          "coding": [
            {
              "system": "http://www.whocc.no/atc",
              "code": "J01CA04",
              "display": "Amoxicillin"
            }
          ],
          "text": "Amoxicillin"
        },
        "subject": {
          "reference": "Patient/TW00206"
        },
        "effectiveDateTime": "2025-09-13T00:00:00+08:00",
        "dosage": {
          "route": {
            "coding": [
              {
                "system": "http://terminology.hl7.org/CodeSystem/v3-RouteOfAdministration",
                "code": "PO"
              }
            ]
          },
          "dose": {
            "value": 333.3333333333333,
            "unit": "mg",
            "system": "http://unitsofmeasure.org",
            "code": "mg"
          }
        }
      },
      "request": {
        "method": "PUT",
        "url": "MedicationAdministration/TW00206-med-admin-2"
      }
    },
    {
      "resource": {
        "resourceType": "Patient",
        "id": "TW00248",
        "identifier": [
          {
            "system": "urn:oid:2.16.886.101.20003.20001",
            "value": "TW00248"
          }
        ],
        "name": [
          {
            "text": "楊志豪",
            "family": "楊",
            "given": [
              "志豪"
            ]
          }
        ],
        "gender": "male",
        "birthDate": "1963-04-16",
        "address": [
          {
            "city": "南投縣",
            "country": "TW"
          }
        ]
      },
      "request": {
        "method": "PUT",
        "url": "Patient/TW00248"
      }
    },
    {
      "resource": {
        "resourceType": "Encounter",
        "id": "TW00248-encounter",
        "status": "finished",
        "class": {
          "system": "http://terminology.hl7.org/CodeSystem/v3-ActCode",
          "code": "IMP"
        },
        "subject": {
          "reference": "Patient/TW00248"
        },
        "period": {
          "start": "2025-01-22T00:00:00+08:00",
          "end": "2025-01-27T00:00:00+08:00"
        },
        "reasonCode": [
          {
            "coding": [
              {
                "system": "http://hl7.org/fhir/sid/icd-10",
                "code": "J18.9",
                "display": "Pneumonia, unspecified organism"
              }
            ],
            "text": "Pneumonia, unspecified organism"
          }
        ]
      },
      "request": {
        "method": "PUT",
        "url": "Encounter/TW00248-encounter"
      }
    },
    {
      "resource": {
        "resourceType": "MedicationRequest",
        "id": "TW00248-med-request",
        "status": "completed",
        "intent": "order",
        "medicationCodeableConcept": {
          "coding": [
            {
              "system": "http://www.whocc.no/atc",
              "code": "J01CA04",
              "display": "Amoxicillin"
            }
          ],
          "text": "Amoxicillin"
        },
        "subject": {
          "reference": "Patient/TW00248"
        },
        "encounter": {
          "reference": "Encounter/TW00248-encounter"
        },
        "authoredOn": "2025-01-22T00:00:00+08:00",
        "dosageInstruction": [
          {
            "timing": {
              "code": {
                "coding": [
                  {
                    "code": "TID"
                  }
                ]
              }
            },
            "route": {
              "coding": [
                {
                  "system": "http://terminology.hl7.org/CodeSystem/v3-RouteOfAdministration",
                  "code": "PO"
                }
              ]
            },
            "doseAndRate": [
              {
                "doseQuantity": {
                  "value": 333.3333333333333,
                  "unit": "mg",
                  "system": "http://unitsofmeasure.org",
                  "code": "mg"
                }
              }
            ]
          }
        ]
      },
      "request": {
        "method": "PUT",
        "url": "MedicationRequest/TW00248-med-request"
      }
    },
    {
      "resource": {
        "resourceType": "MedicationAdministration",
        "id": "TW00248-med-admin-1",
        "status": "completed",
        "medicationCodeableConcept": {
          "coding": [
            {
              "system": "http://www.whocc.no/atc",
              "code": "J01CA04",
              "display": "Amoxicillin"
            }
          ],
          "text": "Amoxicillin"
        },
        "subject": {
          "reference": "Patient/TW00248"
        },
        "effectiveDateTime": "2025-01-22T00:00:00+08:00",
        "dosage": {
          "route": {
            "coding": [
              {
                "system": "http://terminology.hl7.org/CodeSystem/v3-RouteOfAdministration",
                "code": "PO"
              }
            ]
          },
          "dose": {
            "value": 333.3333333333333,
            "unit": "mg",
            "system": "http://unitsofmeasure.org",
            "code": "mg"
          }
        }
      },
      "request": {
        "method": "PUT",
        "url": "MedicationAdministration/TW00248-med-admin-1"
      }
    },
    {
      "resource": {
        "resourceType": "MedicationAdministration",
        "id": "TW00248-med-admin-2",
        "status": "completed",
        "medicationCodeableConcept": {
          "coding": [
            {
              "system": "http://www.whocc.no/atc",
              "code": "J01CA04",
              "display": "Amoxicillin"
            }
          ],
          "text": "Amoxicillin"
        },
        "subject": {
          "reference": "Patient/TW00248"
        },
        "effectiveDateTime": "2025-01-23T00:00:00+08:00",
        "dosage": {
          "route": {
            "coding": [
              {
                "system": "http://terminology.hl7.org/CodeSystem/v3-RouteOfAdministration",
                "code": "PO"
              }
            ]
          },
          "dose": {
            "value": 333.3333333333333,
            "unit": "mg",
            "system": "http://unitsofmeasure.org",
            "code": "mg"
          }
        }
      },
      "request": {
        "method": "PUT",
        "url": "MedicationAdministration/TW00248-med-admin-2"
      }
    },
    {
      "resource": {
        "resourceType": "MedicationAdministration",
        "id": "TW00248-med-admin-3",
        "status": "completed",
        "medicationCodeableConcept": {
          "coding": [
            {
              "system": "http://www.whocc.no/atc",
              "code": "J01CA04",
              "display": "Amoxicillin"
            }
          ],
          "text": "Amoxicillin"
        },
        "subject": {
          "reference": "Patient/TW00248"
        },
        "effectiveDateTime": "2025-01-24T00:00:00+08:00",
        "dosage": {
          "route": {
            "coding": [
              {
                "system": "http://terminology.hl7.org/CodeSystem/v3-RouteOfAdministration",
                "code": "PO"
              }
            ]
          },
          "dose": {
            "value": 333.3333333333333,
            "unit": "mg",
            "system": "http://unitsofmeasure.org",
            "code": "mg"
          }
        }
      },
      "request": {
        "method": "PUT",
        "url": "MedicationAdministration/TW00248-med-admin-3"
      }
    },
    {
      "resource": {
        "resourceType": "Patient",
        "id": "TW00240",
        "identifier": [
          {
            "system": "urn:oid:2.16.886.101.20003.20001",
            "value": "TW00240"
          }
        ],
        "name": [
          {
            "text": "吳家豪",
            "family": "吳",
            "given": [
              "家豪"
            ]
          }
        ],
        "gender": "male",
        "birthDate": "2000-12-02",
        "address": [
          {
            "city": "嘉義縣",
            "country": "TW"
          }
        ]
      },
      "request": {
        "method": "PUT",
        "url": "Patient/TW00240"
      }
    },
    {
      "resource": {
        "resourceType": "Encounter",
        "id": "TW00240-encounter",
        "status": "finished",
        "class": {
          "system": "http://terminology.hl7.org/CodeSystem/v3-ActCode",
          "code": "IMP"
        },
        "subject": {
          "reference": "Patient/TW00240"
        },
        "period": {
          "start": "2025-09-28T00:00:00+08:00",
          "end": "2025-10-06T00:00:00+08:00"
        },
        "reasonCode": [
          {
            "coding": [
              {
                "system": "http://hl7.org/fhir/sid/icd-10",
                "code": "J20.9",
                "display": "Acute bronchitis, unspecified"
              }
            ],
            "text": "Acute bronchitis, unspecified"
          }
        ]
      },
      "request": {
        "method": "PUT",
        "url": "Encounter/TW00240-encounter"
      }
    },
    {
      "resource": {
        "resourceType": "MedicationRequest",
        "id": "TW00240-med-request",
        "status": "completed",
        "intent": "order",
        "medicationCodeableConcept": {
          "coding": [
            {
              "system": "http://www.whocc.no/atc",
              "code": "J01AA02",
              "display": "Doxycycline"
            }
          ],
          "text": "Doxycycline"
        },
        "subject": {
          "reference": "Patient/TW00240"
        },
        "encounter": {
          "reference": "Encounter/TW00240-encounter"
        },
        "authoredOn": "2025-09-28T00:00:00+08:00",
        "dosageInstruction": [
          {
            "timing": {
              "code": {
                "coding": [
                  {
                    "code": "BID"
                  }
                ]
              }
            },
            "route": {
              "coding": [
                {
                  "system": "http://terminology.hl7.org/CodeSystem/v3-RouteOfAdministration",
                  "code": "PO"
                }
              ]
            },
            "doseAndRate": [
              {
                "doseQuantity": {
                  "value": 50.0,
                  "unit": "mg",
                  "system": "http://unitsofmeasure.org",
                  "code": "mg"
                }
              }
            ]
          }
        ]
      },
      "request": {
        "method": "PUT",
        "url": "MedicationRequest/TW00240-med-request"
      }
    },
    {
      "resource": {
        "resourceType": "MedicationAdministration",
        "id": "TW00240-med-admin-1",
        "status": "completed",
        "medicationCodeableConcept": {
          "coding": [
            {
              "system": "http://www.whocc.no/atc",
              "code": "J01AA02",
              "display": "Doxycycline"
            }
          ],
          "text": "Doxycycline"
        },
        "subject": {
          "reference": "Patient/TW00240"
        },
        "effectiveDateTime": "2025-09-28T00:00:00+08:00",
        "dosage": {
          "route": {
            "coding": [
              {
                "system": "http://terminology.hl7.org/CodeSystem/v3-RouteOfAdministration",
                "code": "PO"
              }
            ]
          },
          "dose": {
            "value": 50.0,
            "unit": "mg",
            "system": "http://unitsofmeasure.org",
            "code": "mg"
          }
        }
      },
      "request": {
        "method": "PUT",
        "url": "MedicationAdministration/TW00240-med-admin-1"
      }
    },
    {
      "resource": {
        "resourceType": "MedicationAdministration",
        "id": "TW00240-med-admin-2",
        "status": "completed",
        "medicationCodeableConcept": {
          "coding": [
            {
              "system": "http://www.whocc.no/atc",
              "code": "J01AA02",
              "display": "Doxycycline"
            }
          ],
          "text": "Doxycycline"
        },
        "subject": {
          "reference": "Patient/TW00240"
        },
        "effectiveDateTime": "2025-09-29T00:00:00+08:00",
        "dosage": {
          "route": {
            "coding": [
              {
                "system": "http://terminology.hl7.org/CodeSystem/v3-RouteOfAdministration",
                "code": "PO"
              }
            ]
          },
          "dose": {
            "value": 50.0,
            "unit": "mg",
            "system": "http://unitsofmeasure.org",
            "code": "mg"
          }
        }
      },
      "request": {
        "method": "PUT",
        "url": "MedicationAdministration/TW00240-med-admin-2"
      }
    },
    {
      "resource": {
        "resourceType": "Patient",
        "id": "TW00228",
        "identifier": [
          {
            "system": "urn:oid:2.16.886.101.20003.20001",
            "value": "TW00228"
          }
        ],
        "name": [
          {
            "text": "鄭明哲",
            "family": "鄭",
            "given": [
              "明哲"
            ]
          }
        ],
        "gender": "male",
        "birthDate": "1988-02-10",
        "address": [
          {
            "city": "台南市",
            "country": "TW"
          }
        ]
      },
      "request": {
        "method": "PUT",
        "url": "Patient/TW00228"
      }
    },
    {
      "resource": {
        "resourceType": "Encounter",
        "id": "TW00228-encounter",
        "status": "finished",
        "class": {
          "system": "http://terminology.hl7.org/CodeSystem/v3-ActCode",
          "code": "IMP"
        },
        "subject": {
          "reference": "Patient/TW00228"
        },
        "period": {
          "start": "2025-07-31T00:00:00+08:00",
          "end": "2025-08-12T00:00:00+08:00"
        },
        "reasonCode": [
          {
            "coding": [
              {
                "system": "http://hl7.org/fhir/sid/icd-10",
                "code": "L03.90",
                "display": "Cellulitis, unspecified"
              }
            ],
            "text": "Cellulitis, unspecified"
          }
        ]
      },
      "request": {
        "method": "PUT",
        "url": "Encounter/TW00228-encounter"
      }
    },
    {
      "resource": {
        "resourceType": "MedicationRequest",
        "id": "TW00228-med-request",
        "status": "completed",
        "intent": "order",
        "medicationCodeableConcept": {
          "coding": [
            {
              "system": "http://www.whocc.no/atc",
              "code": "J01DD04",
              "display": "Ceftriaxone"
            }
          ],
          "text": "Ceftriaxone"
        },
        "subject": {
          "reference": "Patient/TW00228"
        },
        "encounter": {
          "reference": "Encounter/TW00228-encounter"
        },
        "authoredOn": "2025-07-31T00:00:00+08:00",
        "dosageInstruction": [
          {
            "timing": {
              "code": {
                "coding": [
                  {
                    "code": "QD"
                  }
                ]
              }
            },
            "route": {
              "coding": [
                {
                  "system": "http://terminology.hl7.org/CodeSystem/v3-RouteOfAdministration",
                  "code": "IV"
                }
              ]
            },
            "doseAndRate": [
              {
                "doseQuantity": {
                  "value": 2000.0,
                  "unit": "mg",
                  "system": "http://unitsofmeasure.org",
                  "code": "mg"
                }
              }
            ]
          }
        ]
      },
      "request": {
        "method": "PUT",
        "url": "MedicationRequest/TW00228-med-request"
      }
    },
    {
      "resource": {
        "resourceType": "MedicationAdministration",
        "id": "TW00228-med-admin-1",
        "status": "completed",
        "medicationCodeableConcept": {
          "coding": [
            {
              "system": "http://www.whocc.no/atc",
              "code": "J01DD04",
              "display": "Ceftriaxone"
            }
          ],
          "text": "Ceftriaxone"
        },
        "subject": {
          "reference": "Patient/TW00228"
        },
        "effectiveDateTime": "2025-07-31T00:00:00+08:00",
        "dosage": {
          "route": {
            "coding": [
              {
                "system": "http://terminology.hl7.org/CodeSystem/v3-RouteOfAdministration",
                "code": "IV"
              }
            ]
          },
          "dose": {
            "value": 2000.0,
            "unit": "mg",
            "system": "http://unitsofmeasure.org",
            "code": "mg"
          }
        }
      },
      "request": {
        "method": "PUT",
        "url": "MedicationAdministration/TW00228-med-admin-1"
      }
    },
    {
      "resource": {
        "resourceType": "MedicationAdministration",
        "id": "TW00228-med-admin-2",
        "status": "completed",
        "medicationCodeableConcept": {
          "coding": [
            {
              "system": "http://www.whocc.no/atc",
              "code": "J01DD04",
              "display": "Ceftriaxone"
            }
          ],
          "text": "Ceftriaxone"
        },
        "subject": {
          "reference": "Patient/TW00228"
        },
        "effectiveDateTime": "2025-08-01T00:00:00+08:00",
        "dosage": {
          "route": {
            "coding": [
              {
                "system": "http://terminology.hl7.org/CodeSystem/v3-RouteOfAdministration",
                "code": "IV"
              }
            ]
          },
          "dose": {
            "value": 2000.0,
            "unit": "mg",
            "system": "http://unitsofmeasure.org",
            "code": "mg"
          }
        }
      },
      "request": {
        "method": "PUT",
        "url": "MedicationAdministration/TW00228-med-admin-2"
      }
    },
    {
      "resource": {
        "resourceType": "Patient",
        "id": "TW00247",
        "identifier": [
          {
            "system": "urn:oid:2.16.886.101.20003.20001",
            "value": "TW00247"
          }
        ],
        "name": [
          {
            "text": "賴雅筑",
            "family": "賴",
            "given": [
              "雅筑"
            ]
          }
        ],
        "gender": "female",
        "birthDate": "1940-04-02",
        "address": [
          {
            "city": "台東縣",
            "country": "TW"
          }
        ]
      },
      "request": {
        "method": "PUT",
        "url": "Patient/TW00247"
      }
    },
    {
      "resource": {
        "resourceType": "Encounter",
        "id": "TW00247-encounter",
        "status": "finished",
        "class": {
          "system": "http://terminology.hl7.org/CodeSystem/v3-ActCode",
          "code": "IMP"
        },
        "subject": {
          "reference": "Patient/TW00247"
        },
        "period": {
          "start": "2025-09-16T00:00:00+08:00",
          "end": "2025-09-23T00:00:00+08:00"
        },
        "reasonCode": [
          {
            "coding": [
              {
                "system": "http://hl7.org/fhir/sid/icd-10",
                "code": "A41.9",
                "display": "Sepsis, unspecified organism"
              }
            ],
            "text": "Sepsis, unspecified organism"
          }
        ]
      },
      "request": {
        "method": "PUT",
        "url": "Encounter/TW00247-encounter"
      }
    },
    {
      "resource": {
        "resourceType": "MedicationRequest",
        "id": "TW00247-med-request",
        "status": "completed",
        "intent": "order",
        "medicationCodeableConcept": {
          "coding": [
            {
              "system": "http://www.whocc.no/atc",
              "code": "J01MA02",
              "display": "Ciprofloxacin"
            }
          ],
          "text": "Ciprofloxacin"
        },
        "subject": {
          "reference": "Patient/TW00247"
        },
        "encounter": {
          "reference": "Encounter/TW00247-encounter"
        },
        "authoredOn": "2025-09-16T00:00:00+08:00",
        "dosageInstruction": [
          {
            "timing": {
              "code": {
                "coding": [
                  {
                    "code": "BID"
                  }
                ]
              }
            },
            "route": {
              "coding": [
                {
                  "system": "http://terminology.hl7.org/CodeSystem/v3-RouteOfAdministration",
                  "code": "PO"
                }
              ]
            },
            "doseAndRate": [
              {
                "doseQuantity": {
                  "value": 400.0,
                  "unit": "mg",
                  "system": "http://unitsofmeasure.org",
                  "code": "mg"
                }
              }
            ]
          }
        ]
      },
      "request": {
        "method": "PUT",
        "url": "MedicationRequest/TW00247-med-request"
      }
    },
    {
      "resource": {
        "resourceType": "MedicationAdministration",
        "id": "TW00247-med-admin-1",
        "status": "completed",
        "medicationCodeableConcept": {
          "coding": [
            {
              "system": "http://www.whocc.no/atc",
              "code": "J01MA02",
              "display": "Ciprofloxacin"
            }
          ],
          "text": "Ciprofloxacin"
        },
        "subject": {
          "reference": "Patient/TW00247"
        },
        "effectiveDateTime": "2025-09-16T00:00:00+08:00",
        "dosage": {
          "route": {
            "coding": [
              {
                "system": "http://terminology.hl7.org/CodeSystem/v3-RouteOfAdministration",
                "code": "PO"
              }
            ]
          },
          "dose": {
            "value": 400.0,
            "unit": "mg",
            "system": "http://unitsofmeasure.org",
            "code": "mg"
          }
        }
      },
      "request": {
        "method": "PUT",
        "url": "MedicationAdministration/TW00247-med-admin-1"
      }
    },
    {
      "resource": {
        "resourceType": "MedicationAdministration",
        "id": "TW00247-med-admin-2",
        "status": "completed",
        "medicationCodeableConcept": {
          "coding": [
            {
              "system": "http://www.whocc.no/atc",
              "code": "J01MA02",
              "display": "Ciprofloxacin"
            }
          ],
          "text": "Ciprofloxacin"
        },
        "subject": {
          "reference": "Patient/TW00247"
        },
        "effectiveDateTime": "2025-09-17T00:00:00+08:00",
        "dosage": {
          "route": {
            "coding": [
              {
                "system": "http://terminology.hl7.org/CodeSystem/v3-RouteOfAdministration",
                "code": "PO"
              }
            ]
          },
          "dose": {
            "value": 400.0,
            "unit": "mg",
            "system": "http://unitsofmeasure.org",
            "code": "mg"
          }
        }
      },
      "request": {
        "method": "PUT",
        "url": "MedicationAdministration/TW00247-med-admin-2"
      }
    },
    {
      "resource": {
        "resourceType": "Patient",
        "id": "TW00242",
        "identifier": [
          {
            "system": "urn:oid:2.16.886.101.20003.20001",
            "value": "TW00242"
          }
        ],
        "name": [
          {
            "text": "陳政廷",
            "family": "陳",
            "given": [
              "政廷"
            ]
          }
        ],
        "gender": "male",
        "birthDate": "1972-04-07",
        "address": [
          {
            "city": "台中市",
            "country": "TW"
          }
        ]
      },
      "request": {
        "method": "PUT",
        "url": "Patient/TW00242"
      }
    },
    {
      "resource": {
        "resourceType": "Encounter",
        "id": "TW00242-encounter",
        "status": "finished",
        "class": {
          "system": "http://terminology.hl7.org/CodeSystem/v3-ActCode",
          "code": "ACUTE"
        },
        "subject": {
          "reference": "Patient/TW00242"
        },
        "period": {
          "start": "2025-09-13T00:00:00+08:00",
          "end": "2025-09-23T00:00:00+08:00"
        },
        "reasonCode": [
          {
            "coding": [
              {
                "system": "http://hl7.org/fhir/sid/icd-10",
                "code": "A41.9",
                "display": "Sepsis, unspecified organism"
              }
            ],
            "text": "Sepsis, unspecified organism"
          }
        ]
      },
      "request": {
        "method": "PUT",
        "url": "Encounter/TW00242-encounter"
      }
    },
    {
      "resource": {
        "resourceType": "MedicationRequest",
        "id": "TW00242-med-request",
        "status": "completed",
        "intent": "order",
        "medicationCodeableConcept": {
          "coding": [
            {
              "system": "http://www.whocc.no/atc",
              "code": "J01CA04",
              "display": "Amoxicillin"
            }
          ],
          "text": "Amoxicillin"
        },
        "subject": {
          "reference": "Patient/TW00242"
        },
        "encounter": {
          "reference": "Encounter/TW00242-encounter"
        },
        "authoredOn": "2025-09-13T00:00:00+08:00",
        "dosageInstruction": [
          {
            "timing": {
              "code": {
                "coding": [
                  {
                    "code": "TID"
                  }
                ]
              }
            },
            "route": {
              "coding": [
                {
                  "system": "http://terminology.hl7.org/CodeSystem/v3-RouteOfAdministration",
                  "code": "PO"
                }
              ]
            },
            "doseAndRate": [
              {
                "doseQuantity": {
                  "value": 333.3333333333333,
                  "unit": "mg",
                  "system": "http://unitsofmeasure.org",
                  "code": "mg"
                }
              }
            ]
          }
        ]
      },
      "request": {
        "method": "PUT",
        "url": "MedicationRequest/TW00242-med-request"
      }
    },
    {
      "resource": {
        "resourceType": "MedicationAdministration",
        "id": "TW00242-med-admin-1",
        "status": "completed",
        "medicationCodeableConcept": {
          "coding": [
            {
              "system": "http://www.whocc.no/atc",
              "code": "J01CA04",
              "display": "Amoxicillin"
            }
          ],
          "text": "Amoxicillin"
        },
        "subject": {
          "reference": "Patient/TW00242"
        },
        "effectiveDateTime": "2025-09-13T00:00:00+08:00",
        "dosage": {
          "route": {
            "coding": [
              {
                "system": "http://terminology.hl7.org/CodeSystem/v3-RouteOfAdministration",
                "code": "PO"
              }
            ]
          },
          "dose": {
            "value": 333.3333333333333,
            "unit": "mg",
            "system": "http://unitsofmeasure.org",
            "code": "mg"
          }
        }
      },
      "request": {
        "method": "PUT",
        "url": "MedicationAdministration/TW00242-med-admin-1"
      }
    },
    {
      "resource": {
        "resourceType": "MedicationAdministration",
        "id": "TW00242-med-admin-2",
        "status": "completed",
        "medicationCodeableConcept": {
          "coding": [
            {
              "system": "http://www.whocc.no/atc",
              "code": "J01CA04",
              "display": "Amoxicillin"
            }
          ],
          "text": "Amoxicillin"
        },
        "subject": {
          "reference": "Patient/TW00242"
        },
        "effectiveDateTime": "2025-09-14T00:00:00+08:00",
        "dosage": {
          "route": {
            "coding": [
              {
                "system": "http://terminology.hl7.org/CodeSystem/v3-RouteOfAdministration",
                "code": "PO"
              }
            ]
          },
          "dose": {
            "value": 333.3333333333333,
            "unit": "mg",
            "system": "http://unitsofmeasure.org",
            "code": "mg"
          }
        }
      },
      "request": {
        "method": "PUT",
        "url": "MedicationAdministration/TW00242-med-admin-2"
      }
    },
    {
      "resource": {
        "resourceType": "Patient",
        "id": "TW00226",
        "identifier": [
          {
            "system": "urn:oid:2.16.886.101.20003.20001",
            "value": "TW00226"
          }
        ],
        "name": [
          {
            "text": "曾淑娟",
            "family": "曾",
            "given": [
              "淑娟"
            ]
          }
        ],
        "gender": "female",
        "birthDate": "2000-03-13",
        "address": [
          {
            "city": "連江縣",
            "country": "TW"
          }
        ]
      },
      "request": {
        "method": "PUT",
        "url": "Patient/TW00226"
      }
    },
    {
      "resource": {
        "resourceType": "Encounter",
        "id": "TW00226-encounter",
        "status": "finished",
        "class": {
          "system": "http://terminology.hl7.org/CodeSystem/v3-ActCode",
          "code": "AMB"
        },
        "subject": {
          "reference": "Patient/TW00226"
        },
        "period": {
          "start": "2025-04-17T00:00:00+08:00",
          "end": "2025-04-17T02:00:00+08:00"
        },
        "reasonCode": [
          {
            "coding": [
              {
                "system": "http://hl7.org/fhir/sid/icd-10",
                "code": "J20.9",
                "display": "Acute bronchitis, unspecified"
              }
            ],
            "text": "Acute bronchitis, unspecified"
          }
        ]
      },
      "request": {
        "method": "PUT",
        "url": "Encounter/TW00226-encounter"
      }
    },
    {
      "resource": {
        "resourceType": "MedicationRequest",
        "id": "TW00226-med-request",
        "status": "completed",
        "intent": "order",
        "medicationCodeableConcept": {
          "coding": [
            {
              "system": "http://www.whocc.no/atc",
              "code": "J01MA02",
              "display": "Ciprofloxacin"
            }
          ],
          "text": "Ciprofloxacin"
        },
        "subject": {
          "reference": "Patient/TW00226"
        },
        "encounter": {
          "reference": "Encounter/TW00226-encounter"
        },
        "authoredOn": "2025-04-17T00:00:00+08:00",
        "dosageInstruction": [
          {
            "timing": {
              "code": {
                "coding": [
                  {
                    "code": "BID"
                  }
                ]
              }
            },
            "route": {
              "coding": [
                {
                  "system": "http://terminology.hl7.org/CodeSystem/v3-RouteOfAdministration",
                  "code": "PO"
                }
              ]
            },
            "doseAndRate": [
              {
                "doseQuantity": {
                  "value": 400.0,
                  "unit": "mg",
                  "system": "http://unitsofmeasure.org",
                  "code": "mg"
                }
              }
            ]
          }
        ]
      },
      "request": {
        "method": "PUT",
        "url": "MedicationRequest/TW00226-med-request"
      }
    },
    {
      "resource": {
        "resourceType": "MedicationAdministration",
        "id": "TW00226-med-admin-1",
        "status": "completed",
        "medicationCodeableConcept": {
          "coding": [
            {
              "system": "http://www.whocc.no/atc",
              "code": "J01MA02",
              "display": "Ciprofloxacin"
            }
          ],
          "text": "Ciprofloxacin"
        },
        "subject": {
          "reference": "Patient/TW00226"
        },
        "effectiveDateTime": "2025-04-17T00:00:00+08:00",
        "dosage": {
          "route": {
            "coding": [
              {
                "system": "http://terminology.hl7.org/CodeSystem/v3-RouteOfAdministration",
                "code": "PO"
              }
            ]
          },
          "dose": {
            "value": 400.0,
            "unit": "mg",
            "system": "http://unitsofmeasure.org",
            "code": "mg"
          }
        }
      },
      "request": {
        "method": "PUT",
        "url": "MedicationAdministration/TW00226-med-admin-1"
      }
    },
    {
      "resource": {
        "resourceType": "Patient",
        "id": "TW00209",
        "identifier": [
          {
            "system": "urn:oid:2.16.886.101.20003.20001",
            "value": "TW00209"
          }
        ],
        "name": [
          {
            "text": "洪柏翰",
            "family": "洪",
            "given": [
              "柏翰"
            ]
          }
        ],
        "gender": "male",
        "birthDate": "1990-09-24",
        "address": [
          {
            "city": "嘉義縣",
            "country": "TW"
          }
        ]
      },
      "request": {
        "method": "PUT",
        "url": "Patient/TW00209"
      }
    },
    {
      "resource": {
        "resourceType": "Encounter",
        "id": "TW00209-encounter",
        "status": "finished",
        "class": {
          "system": "http://terminology.hl7.org/CodeSystem/v3-ActCode",
          "code": "AMB"
        },
        "subject": {
          "reference": "Patient/TW00209"
        },
        "period": {
          "start": "2025-04-03T00:00:00+08:00",
          "end": "2025-04-03T02:00:00+08:00"
        },
        "reasonCode": [
          {
            "coding": [
              {
                "system": "http://hl7.org/fhir/sid/icd-10",
                "code": "J18.9",
                "display": "Pneumonia, unspecified organism"
              }
            ],
            "text": "Pneumonia, unspecified organism"
          }
        ]
      },
      "request": {
        "method": "PUT",
        "url": "Encounter/TW00209-encounter"
      }
    },
    {
      "resource": {
        "resourceType": "MedicationRequest",
        "id": "TW00209-med-request",
        "status": "completed",
        "intent": "order",
        "medicationCodeableConcept": {
          "coding": [
            {
              "system": "http://www.whocc.no/atc",
              "code": "J01MA02",
              "display": "Ciprofloxacin"
            }
          ],
          "text": "Ciprofloxacin"
        },
        "subject": {
          "reference": "Patient/TW00209"
        },
        "encounter": {
          "reference": "Encounter/TW00209-encounter"
        },
        "authoredOn": "2025-04-03T00:00:00+08:00",
        "dosageInstruction": [
          {
            "timing": {
              "code": {
                "coding": [
                  {
                    "code": "BID"
                  }
                ]
              }
            },
            "route": {
              "coding": [
                {
                  "system": "http://terminology.hl7.org/CodeSystem/v3-RouteOfAdministration",
                  "code": "PO"
                }
              ]
            },
            "doseAndRate": [
              {
                "doseQuantity": {
                  "value": 400.0,
                  "unit": "mg",
                  "system": "http://unitsofmeasure.org",
                  "code": "mg"
                }
              }
            ]
          }
        ]
      },
      "request": {
        "method": "PUT",
        "url": "MedicationRequest/TW00209-med-request"
      }
    },
    {
      "resource": {
        "resourceType": "MedicationAdministration",
        "id": "TW00209-med-admin-1",
        "status": "completed",
        "medicationCodeableConcept": {
          "coding": [
            {
              "system": "http://www.whocc.no/atc",
              "code": "J01MA02",
              "display": "Ciprofloxacin"
            }
          ],
          "text": "Ciprofloxacin"
        },
        "subject": {
          "reference": "Patient/TW00209"
        },
        "effectiveDateTime": "2025-04-03T00:00:00+08:00",
        "dosage": {
          "route": {
            "coding": [
              {
                "system": "http://terminology.hl7.org/CodeSystem/v3-RouteOfAdministration",
                "code": "PO"
              }
            ]
          },
          "dose": {
            "value": 400.0,
            "unit": "mg",
            "system": "http://unitsofmeasure.org",
            "code": "mg"
          }
        }
      },
      "request": {
        "method": "PUT",
        "url": "MedicationAdministration/TW00209-med-admin-1"
      }
    },
    {
      "resource": {
        "resourceType": "MedicationAdministration",
        "id": "TW00209-med-admin-2",
        "status": "completed",
        "medicationCodeableConcept": {
          "coding": [
            {
              "system": "http://www.whocc.no/atc",
              "code": "J01MA02",
              "display": "Ciprofloxacin"
            }
          ],
          "text": "Ciprofloxacin"
        },
        "subject": {
          "reference": "Patient/TW00209"
        },
        "effectiveDateTime": "2025-04-03T00:00:00+08:00",
        "dosage": {
          "route": {
            "coding": [
              {
                "system": "http://terminology.hl7.org/CodeSystem/v3-RouteOfAdministration",
                "code": "PO"
              }
            ]
          },
          "dose": {
            "value": 400.0,
            "unit": "mg",
            "system": "http://unitsofmeasure.org",
            "code": "mg"
          }
        }
      },
      "request": {
        "method": "PUT",
        "url": "MedicationAdministration/TW00209-med-admin-2"
      }
    },
    {
      "resource": {
        "resourceType": "Patient",
        "id": "TW00208",
        "identifier": [
          {
            "system": "urn:oid:2.16.886.101.20003.20001",
            "value": "TW00208"
          }
        ],
        "name": [
          {
            "text": "洪淑娟",
            "family": "洪",
            "given": [
              "淑娟"
            ]
          }
        ],
        "gender": "female",
        "birthDate": "1995-07-04",
        "address": [
          {
            "city": "台南市",
            "country": "TW"
          }
        ]
      },
      "request": {
        "method": "PUT",
        "url": "Patient/TW00208"
      }
    },
    {
      "resource": {
        "resourceType": "Encounter",
        "id": "TW00208-encounter",
        "status": "finished",
        "class": {
          "system": "http://terminology.hl7.org/CodeSystem/v3-ActCode",
          "code": "AMB"
        },
        "subject": {
          "reference": "Patient/TW00208"
        },
        "period": {
          "start": "2025-11-15T00:00:00+08:00",
          "end": "2025-11-15T02:00:00+08:00"
        },
        "reasonCode": [
          {
            "coding": [
              {
                "system": "http://hl7.org/fhir/sid/icd-10",
                "code": "N39.0",
                "display": "Urinary tract infection, site not specified"
              }
            ],
            "text": "Urinary tract infection, site not specified"
          }
        ]
      },
      "request": {
        "method": "PUT",
        "url": "Encounter/TW00208-encounter"
      }
    },
    {
      "resource": {
        "resourceType": "MedicationRequest",
        "id": "TW00208-med-request",
        "status": "completed",
        "intent": "order",
        "medicationCodeableConcept": {
          "coding": [
            {
              "system": "http://www.whocc.no/atc",
              "code": "J01DD04",
              "display": "Ceftriaxone"
            }
          ],
          "text": "Ceftriaxone"
        },
        "subject": {
          "reference": "Patient/TW00208"
        },
        "encounter": {
          "reference": "Encounter/TW00208-encounter"
        },
        "authoredOn": "2025-11-15T00:00:00+08:00",
        "dosageInstruction": [
          {
            "timing": {
              "code": {
                "coding": [
                  {
                    "code": "QD"
                  }
                ]
              }
            },
            "route": {
              "coding": [
                {
                  "system": "http://terminology.hl7.org/CodeSystem/v3-RouteOfAdministration",
                  "code": "IV"
                }
              ]
            },
            "doseAndRate": [
              {
                "doseQuantity": {
                  "value": 2000.0,
                  "unit": "mg",
                  "system": "http://unitsofmeasure.org",
                  "code": "mg"
                }
              }
            ]
          }
        ]
      },
      "request": {
        "method": "PUT",
        "url": "MedicationRequest/TW00208-med-request"
      }
    },
    {
      "resource": {
        "resourceType": "MedicationAdministration",
        "id": "TW00208-med-admin-1",
        "status": "completed",
        "medicationCodeableConcept": {
          "coding": [
            {
              "system": "http://www.whocc.no/atc",
              "code": "J01DD04",
              "display": "Ceftriaxone"
            }
          ],
          "text": "Ceftriaxone"
        },
        "subject": {
          "reference": "Patient/TW00208"
        },
        "effectiveDateTime": "2025-11-15T00:00:00+08:00",
        "dosage": {
          "route": {
            "coding": [
              {
                "system": "http://terminology.hl7.org/CodeSystem/v3-RouteOfAdministration",
                "code": "IV"
              }
            ]
          },
          "dose": {
            "value": 2000.0,
            "unit": "mg",
            "system": "http://unitsofmeasure.org",
            "code": "mg"
          }
        }
      },
      "request": {
        "method": "PUT",
        "url": "MedicationAdministration/TW00208-med-admin-1"
      }
    },
    {
      "resource": {
        "resourceType": "MedicationAdministration",
        "id": "TW00208-med-admin-2",
        "status": "completed",
        "medicationCodeableConcept": {
          "coding": [
            {
              "system": "http://www.whocc.no/atc",
              "code": "J01DD04",
              "display": "Ceftriaxone"
            }
          ],
          "text": "Ceftriaxone"
        },
        "subject": {
          "reference": "Patient/TW00208"
        },
        "effectiveDateTime": "2025-11-15T00:00:00+08:00",
        "dosage": {
          "route": {
            "coding": [
              {
                "system": "http://terminology.hl7.org/CodeSystem/v3-RouteOfAdministration",
                "code": "IV"
              }
            ]
          },
          "dose": {
            "value": 2000.0,
            "unit": "mg",
            "system": "http://unitsofmeasure.org",
            "code": "mg"
          }
        }
      },
      "request": {
        "method": "PUT",
        "url": "MedicationAdministration/TW00208-med-admin-2"
      }
    },
    {
      "resource": {
        "resourceType": "Patient",
        "id": "TW00243",
        "identifier": [
          {
            "system": "urn:oid:2.16.886.101.20003.20001",
            "value": "TW00243"
          }
        ],
        "name": [
          {
            "text": "鄭佳穎",
            "family": "鄭",
            "given": [
              "佳穎"
            ]
          }
        ],
        "gender": "female",
        "birthDate": "1979-03-03",
        "address": [
          {
            "city": "嘉義縣",
            "country": "TW"
          }
        ]
      },
      "request": {
        "method": "PUT",
        "url": "Patient/TW00243"
      }
    },
    {
      "resource": {
        "resourceType": "Encounter",
        "id": "TW00243-encounter",
        "status": "finished",
        "class": {
          "system": "http://terminology.hl7.org/CodeSystem/v3-ActCode",
          "code": "EMER"
        },
        "subject": {
          "reference": "Patient/TW00243"
        },
        "period": {
          "start": "2025-08-20T00:00:00+08:00",
          "end": "2025-08-20T02:00:00+08:00"
        },
        "reasonCode": [
          {
            "coding": [
              {
                "system": "http://hl7.org/fhir/sid/icd-10",
                "code": "A41.9",
                "display": "Sepsis, unspecified organism"
              }
            ],
            "text": "Sepsis, unspecified organism"
          }
        ]
      },
      "request": {
        "method": "PUT",
        "url": "Encounter/TW00243-encounter"
      }
    },
    {
      "resource": {
        "resourceType": "MedicationRequest",
        "id": "TW00243-med-request",
        "status": "completed",
        "intent": "order",
        "medicationCodeableConcept": {
          "coding": [
            {
              "system": "http://www.whocc.no/atc",
              "code": "J01DD04",
              "display": "Ceftriaxone"
            }
          ],
          "text": "Ceftriaxone"
        },
        "subject": {
          "reference": "Patient/TW00243"
        },
        "encounter": {
          "reference": "Encounter/TW00243-encounter"
        },
        "authoredOn": "2025-08-20T00:00:00+08:00",
        "dosageInstruction": [
          {
            "timing": {
              "code": {
                "coding": [
                  {
                    "code": "QD"
                  }
                ]
              }
            },
            "route": {
              "coding": [
                {
                  "system": "http://terminology.hl7.org/CodeSystem/v3-RouteOfAdministration",
                  "code": "IV"
                }
              ]
            },
            "doseAndRate": [
              {
                "doseQuantity": {
                  "value": 2000.0,
                  "unit": "mg",
                  "system": "http://unitsofmeasure.org",
                  "code": "mg"
                }
              }
            ]
          }
        ]
      },
      "request": {
        "method": "PUT",
        "url": "MedicationRequest/TW00243-med-request"
      }
    },
    {
      "resource": {
        "resourceType": "MedicationAdministration",
        "id": "TW00243-med-admin-1",
        "status": "completed",
        "medicationCodeableConcept": {
          "coding": [
            {
              "system": "http://www.whocc.no/atc",
              "code": "J01DD04",
              "display": "Ceftriaxone"
            }
          ],
          "text": "Ceftriaxone"
        },
        "subject": {
          "reference": "Patient/TW00243"
        },
        "effectiveDateTime": "2025-08-20T00:00:00+08:00",
        "dosage": {
          "route": {
            "coding": [
              {
                "system": "http://terminology.hl7.org/CodeSystem/v3-RouteOfAdministration",
                "code": "IV"
              }
            ]
          },
          "dose": {
            "value": 2000.0,
            "unit": "mg",
            "system": "http://unitsofmeasure.org",
            "code": "mg"
          }
        }
      },
      "request": {
        "method": "PUT",
        "url": "MedicationAdministration/TW00243-med-admin-1"
      }
    },
    {
      "resource": {
        "resourceType": "MedicationAdministration",
        "id": "TW00243-med-admin-2",
        "status": "completed",
        "medicationCodeableConcept": {
          "coding": [
            {
              "system": "http://www.whocc.no/atc",
              "code": "J01DD04",
              "display": "Ceftriaxone"
            }
          ],
          "text": "Ceftriaxone"
        },
        "subject": {
          "reference": "Patient/TW00243"
        },
        "effectiveDateTime": "2025-08-20T00:00:00+08:00",
        "dosage": {
          "route": {
            "coding": [
              {
                "system": "http://terminology.hl7.org/CodeSystem/v3-RouteOfAdministration",
                "code": "IV"
              }
            ]
          },
          "dose": {
            "value": 2000.0,
            "unit": "mg",
            "system": "http://unitsofmeasure.org",
            "code": "mg"
          }
        }
      },
      "request": {
        "method": "PUT",
        "url": "MedicationAdministration/TW00243-med-admin-2"
      }
    },
    {
      "resource": {
        "resourceType": "Patient",
        "id": "TW00214",
        "identifier": [
          {
            "system": "urn:oid:2.16.886.101.20003.20001",
            "value": "TW00214"
          }
        ],
        "name": [
          {
            "text": "吳俊傑",
            "family": "吳",
            "given": [
              "俊傑"
            ]
          }
        ],
        "gender": "male",
        "birthDate": "2002-07-07",
        "address": [
          {
            "city": "南投縣",
            "country": "TW"
          }
        ]
      },
      "request": {
        "method": "PUT",
        "url": "Patient/TW00214"
      }
    },
    {
      "resource": {
        "resourceType": "Encounter",
        "id": "TW00214-encounter",
        "status": "finished",
        "class": {
          "system": "http://terminology.hl7.org/CodeSystem/v3-ActCode",
          "code": "AMB"
        },
        "subject": {
          "reference": "Patient/TW00214"
        },
        "period": {
          "start": "2025-08-05T00:00:00+08:00",
          "end": "2025-08-05T02:00:00+08:00"
        },
        "reasonCode": [
          {
            "coding": [
              {
                "system": "http://hl7.org/fhir/sid/icd-10",
                "code": "L03.90",
                "display": "Cellulitis, unspecified"
              }
            ],
            "text": "Cellulitis, unspecified"
          }
        ]
      },
      "request": {
        "method": "PUT",
        "url": "Encounter/TW00214-encounter"
      }
    },
    {
      "resource": {
        "resourceType": "MedicationRequest",
        "id": "TW00214-med-request",
        "status": "completed",
        "intent": "order",
        "medicationCodeableConcept": {
          "coding": [
            {
              "system": "http://www.whocc.no/atc",
              "code": "J01AA02",
              "display": "Doxycycline"
            }
          ],
          "text": "Doxycycline"
        },
        "subject": {
          "reference": "Patient/TW00214"
        },
        "encounter": {
          "reference": "Encounter/TW00214-encounter"
        },
        "authoredOn": "2025-08-05T00:00:00+08:00",
        "dosageInstruction": [
          {
            "timing": {
              "code": {
                "coding": [
                  {
                    "code": "BID"
                  }
                ]
              }
            },
            "route": {
              "coding": [
                {
                  "system": "http://terminology.hl7.org/CodeSystem/v3-RouteOfAdministration",
                  "code": "PO"
                }
              ]
            },
            "doseAndRate": [
              {
                "doseQuantity": {
                  "value": 50.0,
                  "unit": "mg",
                  "system": "http://unitsofmeasure.org",
                  "code": "mg"
                }
              }
            ]
          }
        ]
      },
      "request": {
        "method": "PUT",
        "url": "MedicationRequest/TW00214-med-request"
      }
    },
    {
      "resource": {
        "resourceType": "MedicationAdministration",
        "id": "TW00214-med-admin-1",
        "status": "completed",
        "medicationCodeableConcept": {
          "coding": [
            {
              "system": "http://www.whocc.no/atc",
              "code": "J01AA02",
              "display": "Doxycycline"
            }
          ],
          "text": "Doxycycline"
        },
        "subject": {
          "reference": "Patient/TW00214"
        },
        "effectiveDateTime": "2025-08-05T00:00:00+08:00",
        "dosage": {
          "route": {
            "coding": [
              {
                "system": "http://terminology.hl7.org/CodeSystem/v3-RouteOfAdministration",
                "code": "PO"
              }
            ]
          },
          "dose": {
            "value": 50.0,
            "unit": "mg",
            "system": "http://unitsofmeasure.org",
            "code": "mg"
          }
        }
      },
      "request": {
        "method": "PUT",
        "url": "MedicationAdministration/TW00214-med-admin-1"
      }
    },
    {
      "resource": {
        "resourceType": "MedicationAdministration",
        "id": "TW00214-med-admin-2",
        "status": "completed",
        "medicationCodeableConcept": {
          "coding": [
            {
              "system": "http://www.whocc.no/atc",
              "code": "J01AA02",
              "display": "Doxycycline"
            }
          ],
          "text": "Doxycycline"
        },
        "subject": {
          "reference": "Patient/TW00214"
        },
        "effectiveDateTime": "2025-08-05T00:00:00+08:00",
        "dosage": {
          "route": {
            "coding": [
              {
                "system": "http://terminology.hl7.org/CodeSystem/v3-RouteOfAdministration",
                "code": "PO"
              }
            ]
          },
          "dose": {
            "value": 50.0,
            "unit": "mg",
            "system": "http://unitsofmeasure.org",
            "code": "mg"
          }
        }
      },
      "request": {
        "method": "PUT",
        "url": "MedicationAdministration/TW00214-med-admin-2"
      }
    },
    {
      "resource": {
        "resourceType": "Patient",
        "id": "TW00245",
        "identifier": [
          {
            "system": "urn:oid:2.16.886.101.20003.20001",
            "value": "TW00245"
          }
        ],
        "name": [
          {
            "text": "李明哲",
            "family": "李",
            "given": [
              "明哲"
            ]
          }
        ],
        "gender": "male",
        "birthDate": "1966-08-20",
        "address": [
          {
            "city": "台東縣",
            "country": "TW"
          }
        ]
      },
      "request": {
        "method": "PUT",
        "url": "Patient/TW00245"
      }
    },
    {
      "resource": {
        "resourceType": "Encounter",
        "id": "TW00245-encounter",
        "status": "finished",
        "class": {
          "system": "http://terminology.hl7.org/CodeSystem/v3-ActCode",
          "code": "AMB"
        },
        "subject": {
          "reference": "Patient/TW00245"
        },
        "period": {
          "start": "2025-10-13T00:00:00+08:00",
          "end": "2025-10-13T02:00:00+08:00"
        },
        "reasonCode": [
          {
            "coding": [
              {
                "system": "http://hl7.org/fhir/sid/icd-10",
                "code": "J18.9",
                "display": "Pneumonia, unspecified organism"
              }
            ],
            "text": "Pneumonia, unspecified organism"
          }
        ]
      },
      "request": {
        "method": "PUT",
        "url": "Encounter/TW00245-encounter"
      }
    },
    {
      "resource": {
        "resourceType": "MedicationRequest",
        "id": "TW00245-med-request",
        "status": "completed",
        "intent": "order",
        "medicationCodeableConcept": {
          "coding": [
            {
              "system": "http://www.whocc.no/atc",
              "code": "J01DH02",
              "display": "Meropenem"
            }
          ],
          "text": "Meropenem"
        },
        "subject": {
          "reference": "Patient/TW00245"
        },
        "encounter": {
          "reference": "Encounter/TW00245-encounter"
        },
        "authoredOn": "2025-10-13T00:00:00+08:00",
        "dosageInstruction": [
          {
            "timing": {
              "code": {
                "coding": [
                  {
                    "code": "TID"
                  }
                ]
              }
            },
            "route": {
              "coding": [
                {
                  "system": "http://terminology.hl7.org/CodeSystem/v3-RouteOfAdministration",
                  "code": "IV"
                }
              ]
            },
            "doseAndRate": [
              {
                "doseQuantity": {
                  "value": 1000.0,
                  "unit": "mg",
                  "system": "http://unitsofmeasure.org",
                  "code": "mg"
                }
              }
            ]
          }
        ]
      },
      "request": {
        "method": "PUT",
        "url": "MedicationRequest/TW00245-med-request"
      }
    },
    {
      "resource": {
        "resourceType": "MedicationAdministration",
        "id": "TW00245-med-admin-1",
        "status": "completed",
        "medicationCodeableConcept": {
          "coding": [
            {
              "system": "http://www.whocc.no/atc",
              "code": "J01DH02",
              "display": "Meropenem"
            }
          ],
          "text": "Meropenem"
        },
        "subject": {
          "reference": "Patient/TW00245"
        },
        "effectiveDateTime": "2025-10-13T00:00:00+08:00",
        "dosage": {
          "route": {
            "coding": [
              {
                "system": "http://terminology.hl7.org/CodeSystem/v3-RouteOfAdministration",
                "code": "IV"
              }
            ]
          },
          "dose": {
            "value": 1000.0,
            "unit": "mg",
            "system": "http://unitsofmeasure.org",
            "code": "mg"
          }
        }
      },
      "request": {
        "method": "PUT",
        "url": "MedicationAdministration/TW00245-med-admin-1"
      }
    },
    {
      "resource": {
        "resourceType": "Patient",
        "id": "TW00236",
        "identifier": [
          {
            "system": "urn:oid:2.16.886.101.20003.20001",
            "value": "TW00236"
          }
        ],
        "name": [
          {
            "text": "蔡志明",
            "family": "蔡",
            "given": [
              "志明"
            ]
          }
        ],
        "gender": "male",
        "birthDate": "1988-09-25",
        "address": [
          {
            "city": "屏東縣",
            "country": "TW"
          }
        ]
      },
      "request": {
        "method": "PUT",
        "url": "Patient/TW00236"
      }
    },
    {
      "resource": {
        "resourceType": "Encounter",
        "id": "TW00236-encounter",
        "status": "finished",
        "class": {
          "system": "http://terminology.hl7.org/CodeSystem/v3-ActCode",
          "code": "EMER"
        },
        "subject": {
          "reference": "Patient/TW00236"
        },
        "period": {
          "start": "2025-01-24T00:00:00+08:00",
          "end": "2025-01-24T02:00:00+08:00"
        },
        "reasonCode": [
          {
            "coding": [
              {
                "system": "http://hl7.org/fhir/sid/icd-10",
                "code": "A41.9",
                "display": "Sepsis, unspecified organism"
              }
            ],
            "text": "Sepsis, unspecified organism"
          }
        ]
      },
      "request": {
        "method": "PUT",
        "url": "Encounter/TW00236-encounter"
      }
    },
    {
      "resource": {
        "resourceType": "MedicationRequest",
        "id": "TW00236-med-request",
        "status": "completed",
        "intent": "order",
        "medicationCodeableConcept": {
          "coding": [
            {
              "system": "http://www.whocc.no/atc",
              "code": "J01AA02",
              "display": "Doxycycline"
            }
          ],
          "text": "Doxycycline"
        },
        "subject": {
          "reference": "Patient/TW00236"
        },
        "encounter": {
          "reference": "Encounter/TW00236-encounter"
        },
        "authoredOn": "2025-01-24T00:00:00+08:00",
        "dosageInstruction": [
          {
            "timing": {
              "code": {
                "coding": [
                  {
                    "code": "BID"
                  }
                ]
              }
            },
            "route": {
              "coding": [
                {
                  "system": "http://terminology.hl7.org/CodeSystem/v3-RouteOfAdministration",
                  "code": "PO"
                }
              ]
            },
            "doseAndRate": [
              {
                "doseQuantity": {
                  "value": 50.0,
                  "unit": "mg",
                  "system": "http://unitsofmeasure.org",
                  "code": "mg"
                }
              }
            ]
          }
        ]
      },
      "request": {
        "method": "PUT",
        "url": "MedicationRequest/TW00236-med-request"
      }
    },
    {
      "resource": {
        "resourceType": "MedicationAdministration",
        "id": "TW00236-med-admin-1",
        "status": "completed",
        "medicationCodeableConcept": {
          "coding": [
            {
              "system": "http://www.whocc.no/atc",
              "code": "J01AA02",
              "display": "Doxycycline"
            }
          ],
          "text": "Doxycycline"
        },
        "subject": {
          "reference": "Patient/TW00236"
        },
        "effectiveDateTime": "2025-01-24T00:00:00+08:00",
        "dosage": {
          "route": {
            "coding": [
              {
                "system": "http://terminology.hl7.org/CodeSystem/v3-RouteOfAdministration",
                "code": "PO"
              }
            ]
          },
          "dose": {
            "value": 50.0,
            "unit": "mg",
            "system": "http://unitsofmeasure.org",
            "code": "mg"
          }
        }
      },
      "request": {
        "method": "PUT",
        "url": "MedicationAdministration/TW00236-med-admin-1"
      }
    },
    {
      "resource": {
        "resourceType": "Patient",
        "id": "TW00211",
        "identifier": [
          {
            "system": "urn:oid:2.16.886.101.20003.20001",
            "value": "TW00211"
          }
        ],
        "name": [
          {
            "text": "楊世豪",
            "family": "楊",
            "given": [
              "世豪"
            ]
          }
        ],
        "gender": "male",
        "birthDate": "2006-01-28",
        "address": [
          {
            "city": "花蓮縣",
            "country": "TW"
          }
        ]
      },
      "request": {
        "method": "PUT",
        "url": "Patient/TW00211"
      }
    },
    {
      "resource": {
        "resourceType": "Encounter",
        "id": "TW00211-encounter",
        "status": "finished",
        "class": {
          "system": "http://terminology.hl7.org/CodeSystem/v3-ActCode",
          "code": "EMER"
        },
        "subject": {
          "reference": "Patient/TW00211"
        },
        "period": {
          "start": "2025-09-19T00:00:00+08:00",
          "end": "2025-09-19T02:00:00+08:00"
        },
        "reasonCode": [
          {
            "coding": [
              {
                "system": "http://hl7.org/fhir/sid/icd-10",
                "code": "J18.9",
                "display": "Pneumonia, unspecified organism"
              }
            ],
            "text": "Pneumonia, unspecified organism"
          }
        ]
      },
      "request": {
        "method": "PUT",
        "url": "Encounter/TW00211-encounter"
      }
    },
    {
      "resource": {
        "resourceType": "MedicationRequest",
        "id": "TW00211-med-request",
        "status": "completed",
        "intent": "order",
        "medicationCodeableConcept": {
          "coding": [
            {
              "system": "http://www.whocc.no/atc",
              "code": "J01AA02",
              "display": "Doxycycline"
            }
          ],
          "text": "Doxycycline"
        },
        "subject": {
          "reference": "Patient/TW00211"
        },
        "encounter": {
          "reference": "Encounter/TW00211-encounter"
        },
        "authoredOn": "2025-09-19T00:00:00+08:00",
        "dosageInstruction": [
          {
            "timing": {
              "code": {
                "coding": [
                  {
                    "code": "BID"
                  }
                ]
              }
            },
            "route": {
              "coding": [
                {
                  "system": "http://terminology.hl7.org/CodeSystem/v3-RouteOfAdministration",
                  "code": "PO"
                }
              ]
            },
            "doseAndRate": [
              {
                "doseQuantity": {
                  "value": 50.0,
                  "unit": "mg",
                  "system": "http://unitsofmeasure.org",
                  "code": "mg"
                }
              }
            ]
          }
        ]
      },
      "request": {
        "method": "PUT",
        "url": "MedicationRequest/TW00211-med-request"
      }
    },
    {
      "resource": {
        "resourceType": "MedicationAdministration",
        "id": "TW00211-med-admin-1",
        "status": "completed",
        "medicationCodeableConcept": {
          "coding": [
            {
              "system": "http://www.whocc.no/atc",
              "code": "J01AA02",
              "display": "Doxycycline"
            }
          ],
          "text": "Doxycycline"
        },
        "subject": {
          "reference": "Patient/TW00211"
        },
        "effectiveDateTime": "2025-09-19T00:00:00+08:00",
        "dosage": {
          "route": {
            "coding": [
              {
                "system": "http://terminology.hl7.org/CodeSystem/v3-RouteOfAdministration",
                "code": "PO"
              }
            ]
          },
          "dose": {
            "value": 50.0,
            "unit": "mg",
            "system": "http://unitsofmeasure.org",
            "code": "mg"
          }
        }
      },
      "request": {
        "method": "PUT",
        "url": "MedicationAdministration/TW00211-med-admin-1"
      }
    },
    {
      "resource": {
        "resourceType": "MedicationAdministration",
        "id": "TW00211-med-admin-2",
        "status": "completed",
        "medicationCodeableConcept": {
          "coding": [
            {
              "system": "http://www.whocc.no/atc",
              "code": "J01AA02",
              "display": "Doxycycline"
            }
          ],
          "text": "Doxycycline"
        },
        "subject": {
          "reference": "Patient/TW00211"
        },
        "effectiveDateTime": "2025-09-19T00:00:00+08:00",
        "dosage": {
          "route": {
            "coding": [
              {
                "system": "http://terminology.hl7.org/CodeSystem/v3-RouteOfAdministration",
                "code": "PO"
              }
            ]
          },
          "dose": {
            "value": 50.0,
            "unit": "mg",
            "system": "http://unitsofmeasure.org",
            "code": "mg"
          }
        }
      },
      "request": {
        "method": "PUT",
        "url": "MedicationAdministration/TW00211-med-admin-2"
      }
    },
    {
      "resource": {
        "resourceType": "Patient",
        "id": "TW00223",
        "identifier": [
          {
            "system": "urn:oid:2.16.886.101.20003.20001",
            "value": "TW00223"
          }
        ],
        "name": [
          {
            "text": "廖秀英",
            "family": "廖",
            "given": [
              "秀英"
            ]
          }
        ],
        "gender": "female",
        "birthDate": "1952-02-21",
        "address": [
          {
            "city": "雲林縣",
            "country": "TW"
          }
        ]
      },
      "request": {
        "method": "PUT",
        "url": "Patient/TW00223"
      }
    },
    {
      "resource": {
        "resourceType": "Encounter",
        "id": "TW00223-encounter",
        "status": "finished",
        "class": {
          "system": "http://terminology.hl7.org/CodeSystem/v3-ActCode",
          "code": "EMER"
        },
        "subject": {
          "reference": "Patient/TW00223"
        },
        "period": {
          "start": "2025-03-25T00:00:00+08:00",
          "end": "2025-03-25T02:00:00+08:00"
        },
        "reasonCode": [
          {
            "coding": [
              {
                "system": "http://hl7.org/fhir/sid/icd-10",
                "code": "L03.90",
                "display": "Cellulitis, unspecified"
              }
            ],
            "text": "Cellulitis, unspecified"
          }
        ]
      },
      "request": {
        "method": "PUT",
        "url": "Encounter/TW00223-encounter"
      }
    },
    {
      "resource": {
        "resourceType": "MedicationRequest",
        "id": "TW00223-med-request",
        "status": "completed",
        "intent": "order",
        "medicationCodeableConcept": {
          "coding": [
            {
              "system": "http://www.whocc.no/atc",
              "code": "J01XA01",
              "display": "Vancomycin"
            }
          ],
          "text": "Vancomycin"
        },
        "subject": {
          "reference": "Patient/TW00223"
        },
        "encounter": {
          "reference": "Encounter/TW00223-encounter"
        },
        "authoredOn": "2025-03-25T00:00:00+08:00",
        "dosageInstruction": [
          {
            "timing": {
              "code": {
                "coding": [
                  {
                    "code": "BID"
                  }
                ]
              }
            },
            "route": {
              "coding": [
                {
                  "system": "http://terminology.hl7.org/CodeSystem/v3-RouteOfAdministration",
                  "code": "IV"
                }
              ]
            },
            "doseAndRate": [
              {
                "doseQuantity": {
                  "value": 1000.0,
                  "unit": "mg",
                  "system": "http://unitsofmeasure.org",
                  "code": "mg"
                }
              }
            ]
          }
        ]
      },
      "request": {
        "method": "PUT",
        "url": "MedicationRequest/TW00223-med-request"
      }
    },
    {
      "resource": {
        "resourceType": "MedicationAdministration",
        "id": "TW00223-med-admin-1",
        "status": "completed",
        "medicationCodeableConcept": {
          "coding": [
            {
              "system": "http://www.whocc.no/atc",
              "code": "J01XA01",
              "display": "Vancomycin"
            }
          ],
          "text": "Vancomycin"
        },
        "subject": {
          "reference": "Patient/TW00223"
        },
        "effectiveDateTime": "2025-03-25T00:00:00+08:00",
        "dosage": {
          "route": {
            "coding": [
              {
                "system": "http://terminology.hl7.org/CodeSystem/v3-RouteOfAdministration",
                "code": "IV"
              }
            ]
          },
          "dose": {
            "value": 1000.0,
            "unit": "mg",
            "system": "http://unitsofmeasure.org",
            "code": "mg"
          }
        }
      },
      "request": {
        "method": "PUT",
        "url": "MedicationAdministration/TW00223-med-admin-1"
      }
    },
    {
      "resource": {
        "resourceType": "Patient",
        "id": "TW00219",
        "identifier": [
          {
            "system": "urn:oid:2.16.886.101.20003.20001",
            "value": "TW00219"
          }
        ],
        "name": [
          {
            "text": "賴志明",
            "family": "賴",
            "given": [
              "志明"
            ]
          }
        ],
        "gender": "male",
        "birthDate": "1967-05-06",
        "address": [
          {
            "city": "高雄市",
            "country": "TW"
          }
        ]
      },
      "request": {
        "method": "PUT",
        "url": "Patient/TW00219"
      }
    },
    {
      "resource": {
        "resourceType": "Encounter",
        "id": "TW00219-encounter",
        "status": "finished",
        "class": {
          "system": "http://terminology.hl7.org/CodeSystem/v3-ActCode",
          "code": "AMB"
        },
        "subject": {
          "reference": "Patient/TW00219"
        },
        "period": {
          "start": "2025-09-03T00:00:00+08:00",
          "end": "2025-09-03T02:00:00+08:00"
        },
        "reasonCode": [
          {
            "coding": [
              {
                "system": "http://hl7.org/fhir/sid/icd-10",
                "code": "N39.0",
                "display": "Urinary tract infection, site not specified"
              }
            ],
            "text": "Urinary tract infection, site not specified"
          }
        ]
      },
      "request": {
        "method": "PUT",
        "url": "Encounter/TW00219-encounter"
      }
    },
    {
      "resource": {
        "resourceType": "MedicationRequest",
        "id": "TW00219-med-request",
        "status": "completed",
        "intent": "order",
        "medicationCodeableConcept": {
          "coding": [
            {
              "system": "http://www.whocc.no/atc",
              "code": "J01CA04",
              "display": "Amoxicillin"
            }
          ],
          "text": "Amoxicillin"
        },
        "subject": {
          "reference": "Patient/TW00219"
        },
        "encounter": {
          "reference": "Encounter/TW00219-encounter"
        },
        "authoredOn": "2025-09-03T00:00:00+08:00",
        "dosageInstruction": [
          {
            "timing": {
              "code": {
                "coding": [
                  {
                    "code": "TID"
                  }
                ]
              }
            },
            "route": {
              "coding": [
                {
                  "system": "http://terminology.hl7.org/CodeSystem/v3-RouteOfAdministration",
                  "code": "PO"
                }
              ]
            },
            "doseAndRate": [
              {
                "doseQuantity": {
                  "value": 333.3333333333333,
                  "unit": "mg",
                  "system": "http://unitsofmeasure.org",
                  "code": "mg"
                }
              }
            ]
          }
        ]
      },
      "request": {
        "method": "PUT",
        "url": "MedicationRequest/TW00219-med-request"
      }
    },
    {
      "resource": {
        "resourceType": "MedicationAdministration",
        "id": "TW00219-med-admin-1",
        "status": "completed",
        "medicationCodeableConcept": {
          "coding": [
            {
              "system": "http://www.whocc.no/atc",
              "code": "J01CA04",
              "display": "Amoxicillin"
            }
          ],
          "text": "Amoxicillin"
        },
        "subject": {
          "reference": "Patient/TW00219"
        },
        "effectiveDateTime": "2025-09-03T00:00:00+08:00",
        "dosage": {
          "route": {
            "coding": [
              {
                "system": "http://terminology.hl7.org/CodeSystem/v3-RouteOfAdministration",
                "code": "PO"
              }
            ]
          },
          "dose": {
            "value": 333.3333333333333,
            "unit": "mg",
            "system": "http://unitsofmeasure.org",
            "code": "mg"
          }
        }
      },
      "request": {
        "method": "PUT",
        "url": "MedicationAdministration/TW00219-med-admin-1"
      }
    },
    {
      "resource": {
        "resourceType": "MedicationAdministration",
        "id": "TW00219-med-admin-2",
        "status": "completed",
        "medicationCodeableConcept": {
          "coding": [
            {
              "system": "http://www.whocc.no/atc",
              "code": "J01CA04",
              "display": "Amoxicillin"
            }
          ],
          "text": "Amoxicillin"
        },
        "subject": {
          "reference": "Patient/TW00219"
        },
        "effectiveDateTime": "2025-09-03T00:00:00+08:00",
        "dosage": {
          "route": {
            "coding": [
              {
                "system": "http://terminology.hl7.org/CodeSystem/v3-RouteOfAdministration",
                "code": "PO"
              }
            ]
          },
          "dose": {
            "value": 333.3333333333333,
            "unit": "mg",
            "system": "http://unitsofmeasure.org",
            "code": "mg"
          }
        }
      },
      "request": {
        "method": "PUT",
        "url": "MedicationAdministration/TW00219-med-admin-2"
      }
    },
    {
      "resource": {
        "resourceType": "Patient",
        "id": "TW00238",
        "identifier": [
          {
            "system": "urn:oid:2.16.886.101.20003.20001",
            "value": "TW00238"
          }
        ],
        "name": [
          {
            "text": "王柏翰",
            "family": "王",
            "given": [
              "柏翰"
            ]
          }
        ],
        "gender": "male",
        "birthDate": "1946-12-12",
        "address": [
          {
            "city": "南投縣",
            "country": "TW"
          }
        ]
      },
      "request": {
        "method": "PUT",
        "url": "Patient/TW00238"
      }
    },
    {
      "resource": {
        "resourceType": "Encounter",
        "id": "TW00238-encounter",
        "status": "finished",
        "class": {
          "system": "http://terminology.hl7.org/CodeSystem/v3-ActCode",
          "code": "EMER"
        },
        "subject": {
          "reference": "Patient/TW00238"
        },
        "period": {
          "start": "2025-09-24T00:00:00+08:00",
          "end": "2025-09-24T02:00:00+08:00"
        },
        "reasonCode": [
          {
            "coding": [
              {
                "system": "http://hl7.org/fhir/sid/icd-10",
                "code": "N39.0",
                "display": "Urinary tract infection, site not specified"
              }
            ],
            "text": "Urinary tract infection, site not specified"
          }
        ]
      },
      "request": {
        "method": "PUT",
        "url": "Encounter/TW00238-encounter"
      }
    },
    {
      "resource": {
        "resourceType": "MedicationRequest",
        "id": "TW00238-med-request",
        "status": "completed",
        "intent": "order",
        "medicationCodeableConcept": {
          "coding": [
            {
              "system": "http://www.whocc.no/atc",
              "code": "J01CA04",
              "display": "Amoxicillin"
            }
          ],
          "text": "Amoxicillin"
        },
        "subject": {
          "reference": "Patient/TW00238"
        },
        "encounter": {
          "reference": "Encounter/TW00238-encounter"
        },
        "authoredOn": "2025-09-24T00:00:00+08:00",
        "dosageInstruction": [
          {
            "timing": {
              "code": {
                "coding": [
                  {
                    "code": "TID"
                  }
                ]
              }
            },
            "route": {
              "coding": [
                {
                  "system": "http://terminology.hl7.org/CodeSystem/v3-RouteOfAdministration",
                  "code": "PO"
                }
              ]
            },
            "doseAndRate": [
              {
                "doseQuantity": {
                  "value": 333.3333333333333,
                  "unit": "mg",
                  "system": "http://unitsofmeasure.org",
                  "code": "mg"
                }
              }
            ]
          }
        ]
      },
      "request": {
        "method": "PUT",
        "url": "MedicationRequest/TW00238-med-request"
      }
    },
    {
      "resource": {
        "resourceType": "MedicationAdministration",
        "id": "TW00238-med-admin-1",
        "status": "completed",
        "medicationCodeableConcept": {
          "coding": [
            {
              "system": "http://www.whocc.no/atc",
              "code": "J01CA04",
              "display": "Amoxicillin"
            }
          ],
          "text": "Amoxicillin"
        },
        "subject": {
          "reference": "Patient/TW00238"
        },
        "effectiveDateTime": "2025-09-24T00:00:00+08:00",
        "dosage": {
          "route": {
            "coding": [
              {
                "system": "http://terminology.hl7.org/CodeSystem/v3-RouteOfAdministration",
                "code": "PO"
              }
            ]
          },
          "dose": {
            "value": 333.3333333333333,
            "unit": "mg",
            "system": "http://unitsofmeasure.org",
            "code": "mg"
          }
        }
      },
      "request": {
        "method": "PUT",
        "url": "MedicationAdministration/TW00238-med-admin-1"
      }
    },
    {
      "resource": {
        "resourceType": "Patient",
        "id": "TW00235",
        "identifier": [
          {
            "system": "urn:oid:2.16.886.101.20003.20001",
            "value": "TW00235"
          }
        ],
        "name": [
          {
            "text": "廖怡靜",
            "family": "廖",
            "given": [
              "怡靜"
            ]
          }
        ],
        "gender": "female",
        "birthDate": "1978-02-08",
        "address": [
          {
            "city": "苗栗縣",
            "country": "TW"
          }
        ]
      },
      "request": {
        "method": "PUT",
        "url": "Patient/TW00235"
      }
    },
    {
      "resource": {
        "resourceType": "Encounter",
        "id": "TW00235-encounter",
        "status": "finished",
        "class": {
          "system": "http://terminology.hl7.org/CodeSystem/v3-ActCode",
          "code": "AMB"
        },
        "subject": {
          "reference": "Patient/TW00235"
        },
        "period": {
          "start": "2025-10-05T00:00:00+08:00",
          "end": "2025-10-05T02:00:00+08:00"
        },
        "reasonCode": [
          {
            "coding": [
              {
                "system": "http://hl7.org/fhir/sid/icd-10",
                "code": "J18.9",
                "display": "Pneumonia, unspecified organism"
              }
            ],
            "text": "Pneumonia, unspecified organism"
          }
        ]
      },
      "request": {
        "method": "PUT",
        "url": "Encounter/TW00235-encounter"
      }
    },
    {
      "resource": {
        "resourceType": "MedicationRequest",
        "id": "TW00235-med-request",
        "status": "completed",
        "intent": "order",
        "medicationCodeableConcept": {
          "coding": [
            {
              "system": "http://www.whocc.no/atc",
              "code": "J01AA02",
              "display": "Doxycycline"
            }
          ],
          "text": "Doxycycline"
        },
        "subject": {
          "reference": "Patient/TW00235"
        },
        "encounter": {
          "reference": "Encounter/TW00235-encounter"
        },
        "authoredOn": "2025-10-05T00:00:00+08:00",
        "dosageInstruction": [
          {
            "timing": {
              "code": {
                "coding": [
                  {
                    "code": "BID"
                  }
                ]
              }
            },
            "route": {
              "coding": [
                {
                  "system": "http://terminology.hl7.org/CodeSystem/v3-RouteOfAdministration",
                  "code": "PO"
                }
              ]
            },
            "doseAndRate": [
              {
                "doseQuantity": {
                  "value": 50.0,
                  "unit": "mg",
                  "system": "http://unitsofmeasure.org",
                  "code": "mg"
                }
              }
            ]
          }
        ]
      },
      "request": {
        "method": "PUT",
        "url": "MedicationRequest/TW00235-med-request"
      }
    },
    {
      "resource": {
        "resourceType": "MedicationAdministration",
        "id": "TW00235-med-admin-1",
        "status": "completed",
        "medicationCodeableConcept": {
          "coding": [
            {
              "system": "http://www.whocc.no/atc",
              "code": "J01AA02",
              "display": "Doxycycline"
            }
          ],
          "text": "Doxycycline"
        },
        "subject": {
          "reference": "Patient/TW00235"
        },
        "effectiveDateTime": "2025-10-05T00:00:00+08:00",
        "dosage": {
          "route": {
            "coding": [
              {
                "system": "http://terminology.hl7.org/CodeSystem/v3-RouteOfAdministration",
                "code": "PO"
              }
            ]
          },
          "dose": {
            "value": 50.0,
            "unit": "mg",
            "system": "http://unitsofmeasure.org",
            "code": "mg"
          }
        }
      },
      "request": {
        "method": "PUT",
        "url": "MedicationAdministration/TW00235-med-admin-1"
      }
    },
    {
      "resource": {
        "resourceType": "MedicationAdministration",
        "id": "TW00235-med-admin-2",
        "status": "completed",
        "medicationCodeableConcept": {
          "coding": [
            {
              "system": "http://www.whocc.no/atc",
              "code": "J01AA02",
              "display": "Doxycycline"
            }
          ],
          "text": "Doxycycline"
        },
        "subject": {
          "reference": "Patient/TW00235"
        },
        "effectiveDateTime": "2025-10-05T00:00:00+08:00",
        "dosage": {
          "route": {
            "coding": [
              {
                "system": "http://terminology.hl7.org/CodeSystem/v3-RouteOfAdministration",
                "code": "PO"
              }
            ]
          },
          "dose": {
            "value": 50.0,
            "unit": "mg",
            "system": "http://unitsofmeasure.org",
            "code": "mg"
          }
        }
      },
      "request": {
        "method": "PUT",
        "url": "MedicationAdministration/TW00235-med-admin-2"
      }
    },
    {
      "resource": {
        "resourceType": "Patient",
        "id": "TW00237",
        "identifier": [
          {
            "system": "urn:oid:2.16.886.101.20003.20001",
            "value": "TW00237"
          }
        ],
        "name": [
          {
            "text": "謝俊宏",
            "family": "謝",
            "given": [
              "俊宏"
            ]
          }
        ],
        "gender": "male",
        "birthDate": "1981-07-04",
        "address": [
          {
            "city": "新竹縣",
            "country": "TW"
          }
        ]
      },
      "request": {
        "method": "PUT",
        "url": "Patient/TW00237"
      }
    },
    {
      "resource": {
        "resourceType": "Encounter",
        "id": "TW00237-encounter",
        "status": "finished",
        "class": {
          "system": "http://terminology.hl7.org/CodeSystem/v3-ActCode",
          "code": "EMER"
        },
        "subject": {
          "reference": "Patient/TW00237"
        },
        "period": {
          "start": "2025-04-15T00:00:00+08:00",
          "end": "2025-04-15T02:00:00+08:00"
        },
        "reasonCode": [
          {
            "coding": [
              {
                "system": "http://hl7.org/fhir/sid/icd-10",
                "code": "J18.9",
                "display": "Pneumonia, unspecified organism"
              }
            ],
            "text": "Pneumonia, unspecified organism"
          }
        ]
      },
      "request": {
        "method": "PUT",
        "url": "Encounter/TW00237-encounter"
      }
    },
    {
      "resource": {
        "resourceType": "MedicationRequest",
        "id": "TW00237-med-request",
        "status": "completed",
        "intent": "order",
        "medicationCodeableConcept": {
          "coding": [
            {
              "system": "http://www.whocc.no/atc",
              "code": "J01AA02",
              "display": "Doxycycline"
            }
          ],
          "text": "Doxycycline"
        },
        "subject": {
          "reference": "Patient/TW00237"
        },
        "encounter": {
          "reference": "Encounter/TW00237-encounter"
        },
        "authoredOn": "2025-04-15T00:00:00+08:00",
        "dosageInstruction": [
          {
            "timing": {
              "code": {
                "coding": [
                  {
                    "code": "BID"
                  }
                ]
              }
            },
            "route": {
              "coding": [
                {
                  "system": "http://terminology.hl7.org/CodeSystem/v3-RouteOfAdministration",
                  "code": "PO"
                }
              ]
            },
            "doseAndRate": [
              {
                "doseQuantity": {
                  "value": 50.0,
                  "unit": "mg",
                  "system": "http://unitsofmeasure.org",
                  "code": "mg"
                }
              }
            ]
          }
        ]
      },
      "request": {
        "method": "PUT",
        "url": "MedicationRequest/TW00237-med-request"
      }
    },
    {
      "resource": {
        "resourceType": "MedicationAdministration",
        "id": "TW00237-med-admin-1",
        "status": "completed",
        "medicationCodeableConcept": {
          "coding": [
            {
              "system": "http://www.whocc.no/atc",
              "code": "J01AA02",
              "display": "Doxycycline"
            }
          ],
          "text": "Doxycycline"
        },
        "subject": {
          "reference": "Patient/TW00237"
        },
        "effectiveDateTime": "2025-04-15T00:00:00+08:00",
        "dosage": {
          "route": {
            "coding": [
              {
                "system": "http://terminology.hl7.org/CodeSystem/v3-RouteOfAdministration",
                "code": "PO"
              }
            ]
          },
          "dose": {
            "value": 50.0,
            "unit": "mg",
            "system": "http://unitsofmeasure.org",
            "code": "mg"
          }
        }
      },
      "request": {
        "method": "PUT",
        "url": "MedicationAdministration/TW00237-med-admin-1"
      }
    },
    {
      "resource": {
        "resourceType": "Patient",
        "id": "TW00201",
        "identifier": [
          {
            "system": "urn:oid:2.16.886.101.20003.20001",
            "value": "TW00201"
          }
        ],
        "name": [
          {
            "text": "楊俊宇",
            "family": "楊",
            "given": [
              "俊宇"
            ]
          }
        ],
        "gender": "male",
        "birthDate": "1997-11-20",
        "address": [
          {
            "city": "宜蘭縣",
            "country": "TW"
          }
        ]
      },
      "request": {
        "method": "PUT",
        "url": "Patient/TW00201"
      }
    },
    {
      "resource": {
        "resourceType": "Encounter",
        "id": "TW00201-encounter",
        "status": "finished",
        "class": {
          "system": "http://terminology.hl7.org/CodeSystem/v3-ActCode",
          "code": "AMB"
        },
        "subject": {
          "reference": "Patient/TW00201"
        },
        "period": {
          "start": "2025-07-26T00:00:00+08:00",
          "end": "2025-07-26T02:00:00+08:00"
        },
        "reasonCode": [
          {
            "coding": [
              {
                "system": "http://hl7.org/fhir/sid/icd-10",
                "code": "A41.9",
                "display": "Sepsis, unspecified organism"
              }
            ],
            "text": "Sepsis, unspecified organism"
          }
        ]
      },
      "request": {
        "method": "PUT",
        "url": "Encounter/TW00201-encounter"
      }
    },
    {
      "resource": {
        "resourceType": "MedicationRequest",
        "id": "TW00201-med-request",
        "status": "completed",
        "intent": "order",
        "medicationCodeableConcept": {
          "coding": [
            {
              "system": "http://www.whocc.no/atc",
              "code": "J01AA02",
              "display": "Doxycycline"
            }
          ],
          "text": "Doxycycline"
        },
        "subject": {
          "reference": "Patient/TW00201"
        },
        "encounter": {
          "reference": "Encounter/TW00201-encounter"
        },
        "authoredOn": "2025-07-26T00:00:00+08:00",
        "dosageInstruction": [
          {
            "timing": {
              "code": {
                "coding": [
                  {
                    "code": "BID"
                  }
                ]
              }
            },
            "route": {
              "coding": [
                {
                  "system": "http://terminology.hl7.org/CodeSystem/v3-RouteOfAdministration",
                  "code": "PO"
                }
              ]
            },
            "doseAndRate": [
              {
                "doseQuantity": {
                  "value": 50.0,
                  "unit": "mg",
                  "system": "http://unitsofmeasure.org",
                  "code": "mg"
                }
              }
            ]
          }
        ]
      },
      "request": {
        "method": "PUT",
        "url": "MedicationRequest/TW00201-med-request"
      }
    },
    {
      "resource": {
        "resourceType": "MedicationAdministration",
        "id": "TW00201-med-admin-1",
        "status": "completed",
        "medicationCodeableConcept": {
          "coding": [
            {
              "system": "http://www.whocc.no/atc",
              "code": "J01AA02",
              "display": "Doxycycline"
            }
          ],
          "text": "Doxycycline"
        },
        "subject": {
          "reference": "Patient/TW00201"
        },
        "effectiveDateTime": "2025-07-26T00:00:00+08:00",
        "dosage": {
          "route": {
            "coding": [
              {
                "system": "http://terminology.hl7.org/CodeSystem/v3-RouteOfAdministration",
                "code": "PO"
              }
            ]
          },
          "dose": {
            "value": 50.0,
            "unit": "mg",
            "system": "http://unitsofmeasure.org",
            "code": "mg"
          }
        }
      },
      "request": {
        "method": "PUT",
        "url": "MedicationAdministration/TW00201-med-admin-1"
      }
    },
    {
      "resource": {
        "resourceType": "MedicationAdministration",
        "id": "TW00201-med-admin-2",
        "status": "completed",
        "medicationCodeableConcept": {
          "coding": [
            {
              "system": "http://www.whocc.no/atc",
              "code": "J01AA02",
              "display": "Doxycycline"
            }
          ],
          "text": "Doxycycline"
        },
        "subject": {
          "reference": "Patient/TW00201"
        },
        "effectiveDateTime": "2025-07-26T00:00:00+08:00",
        "dosage": {
          "route": {
            "coding": [
              {
                "system": "http://terminology.hl7.org/CodeSystem/v3-RouteOfAdministration",
                "code": "PO"
              }
            ]
          },
          "dose": {
            "value": 50.0,
            "unit": "mg",
            "system": "http://unitsofmeasure.org",
            "code": "mg"
          }
        }
      },
      "request": {
        "method": "PUT",
        "url": "MedicationAdministration/TW00201-med-admin-2"
      }
    },
    {
      "resource": {
        "resourceType": "Patient",
        "id": "TW00227",
        "identifier": [
          {
            "system": "urn:oid:2.16.886.101.20003.20001",
            "value": "TW00227"
          }
        ],
        "name": [
          {
            "text": "曾欣怡",
            "family": "曾",
            "given": [
              "欣怡"
            ]
          }
        ],
        "gender": "female",
        "birthDate": "1946-01-11",
        "address": [
          {
            "city": "基隆市",
            "country": "TW"
          }
        ]
      },
      "request": {
        "method": "PUT",
        "url": "Patient/TW00227"
      }
    },
    {
      "resource": {
        "resourceType": "Encounter",
        "id": "TW00227-encounter",
        "status": "finished",
        "class": {
          "system": "http://terminology.hl7.org/CodeSystem/v3-ActCode",
          "code": "EMER"
        },
        "subject": {
          "reference": "Patient/TW00227"
        },
        "period": {
          "start": "2025-09-12T00:00:00+08:00",
          "end": "2025-09-12T02:00:00+08:00"
        },
        "reasonCode": [
          {
            "coding": [
              {
                "system": "http://hl7.org/fhir/sid/icd-10",
                "code": "J18.9",
                "display": "Pneumonia, unspecified organism"
              }
            ],
            "text": "Pneumonia, unspecified organism"
          }
        ]
      },
      "request": {
        "method": "PUT",
        "url": "Encounter/TW00227-encounter"
      }
    },
    {
      "resource": {
        "resourceType": "MedicationRequest",
        "id": "TW00227-med-request",
        "status": "completed",
        "intent": "order",
        "medicationCodeableConcept": {
          "coding": [
            {
              "system": "http://www.whocc.no/atc",
              "code": "J01AA02",
              "display": "Doxycycline"
            }
          ],
          "text": "Doxycycline"
        },
        "subject": {
          "reference": "Patient/TW00227"
        },
        "encounter": {
          "reference": "Encounter/TW00227-encounter"
        },
        "authoredOn": "2025-09-12T00:00:00+08:00",
        "dosageInstruction": [
          {
            "timing": {
              "code": {
                "coding": [
                  {
                    "code": "BID"
                  }
                ]
              }
            },
            "route": {
              "coding": [
                {
                  "system": "http://terminology.hl7.org/CodeSystem/v3-RouteOfAdministration",
                  "code": "PO"
                }
              ]
            },
            "doseAndRate": [
              {
                "doseQuantity": {
                  "value": 50.0,
                  "unit": "mg",
                  "system": "http://unitsofmeasure.org",
                  "code": "mg"
                }
              }
            ]
          }
        ]
      },
      "request": {
        "method": "PUT",
        "url": "MedicationRequest/TW00227-med-request"
      }
    },
    {
      "resource": {
        "resourceType": "MedicationAdministration",
        "id": "TW00227-med-admin-1",
        "status": "completed",
        "medicationCodeableConcept": {
          "coding": [
            {
              "system": "http://www.whocc.no/atc",
              "code": "J01AA02",
              "display": "Doxycycline"
            }
          ],
          "text": "Doxycycline"
        },
        "subject": {
          "reference": "Patient/TW00227"
        },
        "effectiveDateTime": "2025-09-12T00:00:00+08:00",
        "dosage": {
          "route": {
            "coding": [
              {
                "system": "http://terminology.hl7.org/CodeSystem/v3-RouteOfAdministration",
                "code": "PO"
              }
            ]
          },
          "dose": {
            "value": 50.0,
            "unit": "mg",
            "system": "http://unitsofmeasure.org",
            "code": "mg"
          }
        }
      },
      "request": {
        "method": "PUT",
        "url": "MedicationAdministration/TW00227-med-admin-1"
      }
    },
    {
      "resource": {
        "resourceType": "Patient",
        "id": "TW00246",
        "identifier": [
          {
            "system": "urn:oid:2.16.886.101.20003.20001",
            "value": "TW00246"
          }
        ],
        "name": [
          {
            "text": "謝佳穎",
            "family": "謝",
            "given": [
              "佳穎"
            ]
          }
        ],
        "gender": "female",
        "birthDate": "1954-03-10",
        "address": [
          {
            "city": "花蓮縣",
            "country": "TW"
          }
        ]
      },
      "request": {
        "method": "PUT",
        "url": "Patient/TW00246"
      }
    },
    {
      "resource": {
        "resourceType": "Encounter",
        "id": "TW00246-encounter",
        "status": "finished",
        "class": {
          "system": "http://terminology.hl7.org/CodeSystem/v3-ActCode",
          "code": "EMER"
        },
        "subject": {
          "reference": "Patient/TW00246"
        },
        "period": {
          "start": "2025-07-06T00:00:00+08:00",
          "end": "2025-07-06T02:00:00+08:00"
        },
        "reasonCode": [
          {
            "coding": [
              {
                "system": "http://hl7.org/fhir/sid/icd-10",
                "code": "L03.90",
                "display": "Cellulitis, unspecified"
              }
            ],
            "text": "Cellulitis, unspecified"
          }
        ]
      },
      "request": {
        "method": "PUT",
        "url": "Encounter/TW00246-encounter"
      }
    },
    {
      "resource": {
        "resourceType": "MedicationRequest",
        "id": "TW00246-med-request",
        "status": "completed",
        "intent": "order",
        "medicationCodeableConcept": {
          "coding": [
            {
              "system": "http://www.whocc.no/atc",
              "code": "J01CA04",
              "display": "Amoxicillin"
            }
          ],
          "text": "Amoxicillin"
        },
        "subject": {
          "reference": "Patient/TW00246"
        },
        "encounter": {
          "reference": "Encounter/TW00246-encounter"
        },
        "authoredOn": "2025-07-06T00:00:00+08:00",
        "dosageInstruction": [
          {
            "timing": {
              "code": {
                "coding": [
                  {
                    "code": "TID"
                  }
                ]
              }
            },
            "route": {
              "coding": [
                {
                  "system": "http://terminology.hl7.org/CodeSystem/v3-RouteOfAdministration",
                  "code": "PO"
                }
              ]
            },
            "doseAndRate": [
              {
                "doseQuantity": {
                  "value": 333.3333333333333,
                  "unit": "mg",
                  "system": "http://unitsofmeasure.org",
                  "code": "mg"
                }
              }
            ]
          }
        ]
      },
      "request": {
        "method": "PUT",
        "url": "MedicationRequest/TW00246-med-request"
      }
    },
    {
      "resource": {
        "resourceType": "MedicationAdministration",
        "id": "TW00246-med-admin-1",
        "status": "completed",
        "medicationCodeableConcept": {
          "coding": [
            {
              "system": "http://www.whocc.no/atc",
              "code": "J01CA04",
              "display": "Amoxicillin"
            }
          ],
          "text": "Amoxicillin"
        },
        "subject": {
          "reference": "Patient/TW00246"
        },
        "effectiveDateTime": "2025-07-06T00:00:00+08:00",
        "dosage": {
          "route": {
            "coding": [
              {
                "system": "http://terminology.hl7.org/CodeSystem/v3-RouteOfAdministration",
                "code": "PO"
              }
            ]
          },
          "dose": {
            "value": 333.3333333333333,
            "unit": "mg",
            "system": "http://unitsofmeasure.org",
            "code": "mg"
          }
        }
      },
      "request": {
        "method": "PUT",
        "url": "MedicationAdministration/TW00246-med-admin-1"
      }
    },
    {
      "resource": {
        "resourceType": "Patient",
        "id": "TW00232",
        "identifier": [
          {
            "system": "urn:oid:2.16.886.101.20003.20001",
            "value": "TW00232"
          }
        ],
        "name": [
          {
            "text": "張秀英",
            "family": "張",
            "given": [
              "秀英"
            ]
          }
        ],
        "gender": "female",
        "birthDate": "1940-07-18",
        "address": [
          {
            "city": "台中市",
            "country": "TW"
          }
        ]
      },
      "request": {
        "method": "PUT",
        "url": "Patient/TW00232"
      }
    },
    {
      "resource": {
        "resourceType": "Encounter",
        "id": "TW00232-encounter",
        "status": "finished",
        "class": {
          "system": "http://terminology.hl7.org/CodeSystem/v3-ActCode",
          "code": "AMB"
        },
        "subject": {
          "reference": "Patient/TW00232"
        },
        "period": {
          "start": "2025-07-24T00:00:00+08:00",
          "end": "2025-07-24T02:00:00+08:00"
        },
        "reasonCode": [
          {
            "coding": [
              {
                "system": "http://hl7.org/fhir/sid/icd-10",
                "code": "J18.9",
                "display": "Pneumonia, unspecified organism"
              }
            ],
            "text": "Pneumonia, unspecified organism"
          }
        ]
      },
      "request": {
        "method": "PUT",
        "url": "Encounter/TW00232-encounter"
      }
    },
    {
      "resource": {
        "resourceType": "MedicationRequest",
        "id": "TW00232-med-request",
        "status": "completed",
        "intent": "order",
        "medicationCodeableConcept": {
          "coding": [
            {
              "system": "http://www.whocc.no/atc",
              "code": "J01CA04",
              "display": "Amoxicillin"
            }
          ],
          "text": "Amoxicillin"
        },
        "subject": {
          "reference": "Patient/TW00232"
        },
        "encounter": {
          "reference": "Encounter/TW00232-encounter"
        },
        "authoredOn": "2025-07-24T00:00:00+08:00",
        "dosageInstruction": [
          {
            "timing": {
              "code": {
                "coding": [
                  {
                    "code": "TID"
                  }
                ]
              }
            },
            "route": {
              "coding": [
                {
                  "system": "http://terminology.hl7.org/CodeSystem/v3-RouteOfAdministration",
                  "code": "PO"
                }
              ]
            },
            "doseAndRate": [
              {
                "doseQuantity": {
                  "value": 333.3333333333333,
                  "unit": "mg",
                  "system": "http://unitsofmeasure.org",
                  "code": "mg"
                }
              }
            ]
          }
        ]
      },
      "request": {
        "method": "PUT",
        "url": "MedicationRequest/TW00232-med-request"
      }
    },
    {
      "resource": {
        "resourceType": "MedicationAdministration",
        "id": "TW00232-med-admin-1",
        "status": "completed",
        "medicationCodeableConcept": {
          "coding": [
            {
              "system": "http://www.whocc.no/atc",
              "code": "J01CA04",
              "display": "Amoxicillin"
            }
          ],
          "text": "Amoxicillin"
        },
        "subject": {
          "reference": "Patient/TW00232"
        },
        "effectiveDateTime": "2025-07-24T00:00:00+08:00",
        "dosage": {
          "route": {
            "coding": [
              {
                "system": "http://terminology.hl7.org/CodeSystem/v3-RouteOfAdministration",
                "code": "PO"
              }
            ]
          },
          "dose": {
            "value": 333.3333333333333,
            "unit": "mg",
            "system": "http://unitsofmeasure.org",
            "code": "mg"
          }
        }
      },
      "request": {
        "method": "PUT",
        "url": "MedicationAdministration/TW00232-med-admin-1"
      }
    },
    {
      "resource": {
        "resourceType": "MedicationAdministration",
        "id": "TW00232-med-admin-2",
        "status": "completed",
        "medicationCodeableConcept": {
          "coding": [
            {
              "system": "http://www.whocc.no/atc",
              "code": "J01CA04",
              "display": "Amoxicillin"
            }
          ],
          "text": "Amoxicillin"
        },
        "subject": {
          "reference": "Patient/TW00232"
        },
        "effectiveDateTime": "2025-07-24T00:00:00+08:00",
        "dosage": {
          "route": {
            "coding": [
              {
                "system": "http://terminology.hl7.org/CodeSystem/v3-RouteOfAdministration",
                "code": "PO"
              }
            ]
          },
          "dose": {
            "value": 333.3333333333333,
            "unit": "mg",
            "system": "http://unitsofmeasure.org",
            "code": "mg"
          }
        }
      },
      "request": {
        "method": "PUT",
        "url": "MedicationAdministration/TW00232-med-admin-2"
      }
    },
    {
      "resource": {
        "resourceType": "Patient",
        "id": "TW00205",
        "identifier": [
          {
            "system": "urn:oid:2.16.886.101.20003.20001",
            "value": "TW00205"
          }
        ],
        "name": [
          {
            "text": "曾世豪",
            "family": "曾",
            "given": [
              "世豪"
            ]
          }
        ],
        "gender": "male",
        "birthDate": "1986-12-09",
        "address": [
          {
            "city": "澎湖縣",
            "country": "TW"
          }
        ]
      },
      "request": {
        "method": "PUT",
        "url": "Patient/TW00205"
      }
    },
    {
      "resource": {
        "resourceType": "Encounter",
        "id": "TW00205-encounter",
        "status": "finished",
        "class": {
          "system": "http://terminology.hl7.org/CodeSystem/v3-ActCode",
          "code": "AMB"
        },
        "subject": {
          "reference": "Patient/TW00205"
        },
        "period": {
          "start": "2025-09-19T00:00:00+08:00",
          "end": "2025-09-19T02:00:00+08:00"
        },
        "reasonCode": [
          {
            "coding": [
              {
                "system": "http://hl7.org/fhir/sid/icd-10",
                "code": "A41.9",
                "display": "Sepsis, unspecified organism"
              }
            ],
            "text": "Sepsis, unspecified organism"
          }
        ]
      },
      "request": {
        "method": "PUT",
        "url": "Encounter/TW00205-encounter"
      }
    },
    {
      "resource": {
        "resourceType": "MedicationRequest",
        "id": "TW00205-med-request",
        "status": "completed",
        "intent": "order",
        "medicationCodeableConcept": {
          "coding": [
            {
              "system": "http://www.whocc.no/atc",
              "code": "J01CA04",
              "display": "Amoxicillin"
            }
          ],
          "text": "Amoxicillin"
        },
        "subject": {
          "reference": "Patient/TW00205"
        },
        "encounter": {
          "reference": "Encounter/TW00205-encounter"
        },
        "authoredOn": "2025-09-19T00:00:00+08:00",
        "dosageInstruction": [
          {
            "timing": {
              "code": {
                "coding": [
                  {
                    "code": "TID"
                  }
                ]
              }
            },
            "route": {
              "coding": [
                {
                  "system": "http://terminology.hl7.org/CodeSystem/v3-RouteOfAdministration",
                  "code": "PO"
                }
              ]
            },
            "doseAndRate": [
              {
                "doseQuantity": {
                  "value": 333.3333333333333,
                  "unit": "mg",
                  "system": "http://unitsofmeasure.org",
                  "code": "mg"
                }
              }
            ]
          }
        ]
      },
      "request": {
        "method": "PUT",
        "url": "MedicationRequest/TW00205-med-request"
      }
    },
    {
      "resource": {
        "resourceType": "MedicationAdministration",
        "id": "TW00205-med-admin-1",
        "status": "completed",
        "medicationCodeableConcept": {
          "coding": [
            {
              "system": "http://www.whocc.no/atc",
              "code": "J01CA04",
              "display": "Amoxicillin"
            }
          ],
          "text": "Amoxicillin"
        },
        "subject": {
          "reference": "Patient/TW00205"
        },
        "effectiveDateTime": "2025-09-19T00:00:00+08:00",
        "dosage": {
          "route": {
            "coding": [
              {
                "system": "http://terminology.hl7.org/CodeSystem/v3-RouteOfAdministration",
                "code": "PO"
              }
            ]
          },
          "dose": {
            "value": 333.3333333333333,
            "unit": "mg",
            "system": "http://unitsofmeasure.org",
            "code": "mg"
          }
        }
      },
      "request": {
        "method": "PUT",
        "url": "MedicationAdministration/TW00205-med-admin-1"
      }
    },
    {
      "resource": {
        "resourceType": "Patient",
        "id": "TW00229",
        "identifier": [
          {
            "system": "urn:oid:2.16.886.101.20003.20001",
            "value": "TW00229"
          }
        ],
        "name": [
          {
            "text": "王佳蓉",
            "family": "王",
            "given": [
              "佳蓉"
            ]
          }
        ],
        "gender": "female",
        "birthDate": "1989-11-11",
        "address": [
          {
            "city": "嘉義縣",
            "country": "TW"
          }
        ]
      },
      "request": {
        "method": "PUT",
        "url": "Patient/TW00229"
      }
    },
    {
      "resource": {
        "resourceType": "Encounter",
        "id": "TW00229-encounter",
        "status": "finished",
        "class": {
          "system": "http://terminology.hl7.org/CodeSystem/v3-ActCode",
          "code": "EMER"
        },
        "subject": {
          "reference": "Patient/TW00229"
        },
        "period": {
          "start": "2025-03-25T00:00:00+08:00",
          "end": "2025-03-25T02:00:00+08:00"
        },
        "reasonCode": [
          {
            "coding": [
              {
                "system": "http://hl7.org/fhir/sid/icd-10",
                "code": "J18.9",
                "display": "Pneumonia, unspecified organism"
              }
            ],
            "text": "Pneumonia, unspecified organism"
          }
        ]
      },
      "request": {
        "method": "PUT",
        "url": "Encounter/TW00229-encounter"
      }
    },
    {
      "resource": {
        "resourceType": "MedicationRequest",
        "id": "TW00229-med-request",
        "status": "completed",
        "intent": "order",
        "medicationCodeableConcept": {
          "coding": [
            {
              "system": "http://www.whocc.no/atc",
              "code": "J01MA02",
              "display": "Ciprofloxacin"
            }
          ],
          "text": "Ciprofloxacin"
        },
        "subject": {
          "reference": "Patient/TW00229"
        },
        "encounter": {
          "reference": "Encounter/TW00229-encounter"
        },
        "authoredOn": "2025-03-25T00:00:00+08:00",
        "dosageInstruction": [
          {
            "timing": {
              "code": {
                "coding": [
                  {
                    "code": "BID"
                  }
                ]
              }
            },
            "route": {
              "coding": [
                {
                  "system": "http://terminology.hl7.org/CodeSystem/v3-RouteOfAdministration",
                  "code": "PO"
                }
              ]
            },
            "doseAndRate": [
              {
                "doseQuantity": {
                  "value": 400.0,
                  "unit": "mg",
                  "system": "http://unitsofmeasure.org",
                  "code": "mg"
                }
              }
            ]
          }
        ]
      },
      "request": {
        "method": "PUT",
        "url": "MedicationRequest/TW00229-med-request"
      }
    },
    {
      "resource": {
        "resourceType": "MedicationAdministration",
        "id": "TW00229-med-admin-1",
        "status": "completed",
        "medicationCodeableConcept": {
          "coding": [
            {
              "system": "http://www.whocc.no/atc",
              "code": "J01MA02",
              "display": "Ciprofloxacin"
            }
          ],
          "text": "Ciprofloxacin"
        },
        "subject": {
          "reference": "Patient/TW00229"
        },
        "effectiveDateTime": "2025-03-25T00:00:00+08:00",
        "dosage": {
          "route": {
            "coding": [
              {
                "system": "http://terminology.hl7.org/CodeSystem/v3-RouteOfAdministration",
                "code": "PO"
              }
            ]
          },
          "dose": {
            "value": 400.0,
            "unit": "mg",
            "system": "http://unitsofmeasure.org",
            "code": "mg"
          }
        }
      },
      "request": {
        "method": "PUT",
        "url": "MedicationAdministration/TW00229-med-admin-1"
      }
    },
    {
      "resource": {
        "resourceType": "Patient",
        "id": "TW00239",
        "identifier": [
          {
            "system": "urn:oid:2.16.886.101.20003.20001",
            "value": "TW00239"
          }
        ],
        "name": [
          {
            "text": "洪建宏",
            "family": "洪",
            "given": [
              "建宏"
            ]
          }
        ],
        "gender": "male",
        "birthDate": "1955-01-18",
        "address": [
          {
            "city": "彰化縣",
            "country": "TW"
          }
        ]
      },
      "request": {
        "method": "PUT",
        "url": "Patient/TW00239"
      }
    },
    {
      "resource": {
        "resourceType": "Encounter",
        "id": "TW00239-encounter",
        "status": "finished",
        "class": {
          "system": "http://terminology.hl7.org/CodeSystem/v3-ActCode",
          "code": "EMER"
        },
        "subject": {
          "reference": "Patient/TW00239"
        },
        "period": {
          "start": "2025-09-23T00:00:00+08:00",
          "end": "2025-09-23T02:00:00+08:00"
        },
        "reasonCode": [
          {
            "coding": [
              {
                "system": "http://hl7.org/fhir/sid/icd-10",
                "code": "J18.9",
                "display": "Pneumonia, unspecified organism"
              }
            ],
            "text": "Pneumonia, unspecified organism"
          }
        ]
      },
      "request": {
        "method": "PUT",
        "url": "Encounter/TW00239-encounter"
      }
    },
    {
      "resource": {
        "resourceType": "MedicationRequest",
        "id": "TW00239-med-request",
        "status": "completed",
        "intent": "order",
        "medicationCodeableConcept": {
          "coding": [
            {
              "system": "http://www.whocc.no/atc",
              "code": "J01DD04",
              "display": "Ceftriaxone"
            }
          ],
          "text": "Ceftriaxone"
        },
        "subject": {
          "reference": "Patient/TW00239"
        },
        "encounter": {
          "reference": "Encounter/TW00239-encounter"
        },
        "authoredOn": "2025-09-23T00:00:00+08:00",
        "dosageInstruction": [
          {
            "timing": {
              "code": {
                "coding": [
                  {
                    "code": "QD"
                  }
                ]
              }
            },
            "route": {
              "coding": [
                {
                  "system": "http://terminology.hl7.org/CodeSystem/v3-RouteOfAdministration",
                  "code": "IV"
                }
              ]
            },
            "doseAndRate": [
              {
                "doseQuantity": {
                  "value": 2000.0,
                  "unit": "mg",
                  "system": "http://unitsofmeasure.org",
                  "code": "mg"
                }
              }
            ]
          }
        ]
      },
      "request": {
        "method": "PUT",
        "url": "MedicationRequest/TW00239-med-request"
      }
    },
    {
      "resource": {
        "resourceType": "MedicationAdministration",
        "id": "TW00239-med-admin-1",
        "status": "completed",
        "medicationCodeableConcept": {
          "coding": [
            {
              "system": "http://www.whocc.no/atc",
              "code": "J01DD04",
              "display": "Ceftriaxone"
            }
          ],
          "text": "Ceftriaxone"
        },
        "subject": {
          "reference": "Patient/TW00239"
        },
        "effectiveDateTime": "2025-09-23T00:00:00+08:00",
        "dosage": {
          "route": {
            "coding": [
              {
                "system": "http://terminology.hl7.org/CodeSystem/v3-RouteOfAdministration",
                "code": "IV"
              }
            ]
          },
          "dose": {
            "value": 2000.0,
            "unit": "mg",
            "system": "http://unitsofmeasure.org",
            "code": "mg"
          }
        }
      },
      "request": {
        "method": "PUT",
        "url": "MedicationAdministration/TW00239-med-admin-1"
      }
    },
    {
      "resource": {
        "resourceType": "Patient",
        "id": "TW00231",
        "identifier": [
          {
            "system": "urn:oid:2.16.886.101.20003.20001",
            "value": "TW00231"
          }
        ],
        "name": [
          {
            "text": "陳雅婷",
            "family": "陳",
            "given": [
              "雅婷"
            ]
          }
        ],
        "gender": "female",
        "birthDate": "1985-02-18",
        "address": [
          {
            "city": "台東縣",
            "country": "TW"
          }
        ]
      },
      "request": {
        "method": "PUT",
        "url": "Patient/TW00231"
      }
    },
    {
      "resource": {
        "resourceType": "Encounter",
        "id": "TW00231-encounter",
        "status": "finished",
        "class": {
          "system": "http://terminology.hl7.org/CodeSystem/v3-ActCode",
          "code": "EMER"
        },
        "subject": {
          "reference": "Patient/TW00231"
        },
        "period": {
          "start": "2025-09-08T00:00:00+08:00",
          "end": "2025-09-08T02:00:00+08:00"
        },
        "reasonCode": [
          {
            "coding": [
              {
                "system": "http://hl7.org/fhir/sid/icd-10",
                "code": "L03.90",
                "display": "Cellulitis, unspecified"
              }
            ],
            "text": "Cellulitis, unspecified"
          }
        ]
      },
      "request": {
        "method": "PUT",
        "url": "Encounter/TW00231-encounter"
      }
    },
    {
      "resource": {
        "resourceType": "MedicationRequest",
        "id": "TW00231-med-request",
        "status": "completed",
        "intent": "order",
        "medicationCodeableConcept": {
          "coding": [
            {
              "system": "http://www.whocc.no/atc",
              "code": "J01AA02",
              "display": "Doxycycline"
            }
          ],
          "text": "Doxycycline"
        },
        "subject": {
          "reference": "Patient/TW00231"
        },
        "encounter": {
          "reference": "Encounter/TW00231-encounter"
        },
        "authoredOn": "2025-09-08T00:00:00+08:00",
        "dosageInstruction": [
          {
            "timing": {
              "code": {
                "coding": [
                  {
                    "code": "BID"
                  }
                ]
              }
            },
            "route": {
              "coding": [
                {
                  "system": "http://terminology.hl7.org/CodeSystem/v3-RouteOfAdministration",
                  "code": "PO"
                }
              ]
            },
            "doseAndRate": [
              {
                "doseQuantity": {
                  "value": 50.0,
                  "unit": "mg",
                  "system": "http://unitsofmeasure.org",
                  "code": "mg"
                }
              }
            ]
          }
        ]
      },
      "request": {
        "method": "PUT",
        "url": "MedicationRequest/TW00231-med-request"
      }
    },
    {
      "resource": {
        "resourceType": "MedicationAdministration",
        "id": "TW00231-med-admin-1",
        "status": "completed",
        "medicationCodeableConcept": {
          "coding": [
            {
              "system": "http://www.whocc.no/atc",
              "code": "J01AA02",
              "display": "Doxycycline"
            }
          ],
          "text": "Doxycycline"
        },
        "subject": {
          "reference": "Patient/TW00231"
        },
        "effectiveDateTime": "2025-09-08T00:00:00+08:00",
        "dosage": {
          "route": {
            "coding": [
              {
                "system": "http://terminology.hl7.org/CodeSystem/v3-RouteOfAdministration",
                "code": "PO"
              }
            ]
          },
          "dose": {
            "value": 50.0,
            "unit": "mg",
            "system": "http://unitsofmeasure.org",
            "code": "mg"
          }
        }
      },
      "request": {
        "method": "PUT",
        "url": "MedicationAdministration/TW00231-med-admin-1"
      }
    },
    {
      "resource": {
        "resourceType": "MedicationAdministration",
        "id": "TW00231-med-admin-2",
        "status": "completed",
        "medicationCodeableConcept": {
          "coding": [
            {
              "system": "http://www.whocc.no/atc",
              "code": "J01AA02",
              "display": "Doxycycline"
            }
          ],
          "text": "Doxycycline"
        },
        "subject": {
          "reference": "Patient/TW00231"
        },
        "effectiveDateTime": "2025-09-08T00:00:00+08:00",
        "dosage": {
          "route": {
            "coding": [
              {
                "system": "http://terminology.hl7.org/CodeSystem/v3-RouteOfAdministration",
                "code": "PO"
              }
            ]
          },
          "dose": {
            "value": 50.0,
            "unit": "mg",
            "system": "http://unitsofmeasure.org",
            "code": "mg"
          }
        }
      },
      "request": {
        "method": "PUT",
        "url": "MedicationAdministration/TW00231-med-admin-2"
      }
    },
    {
      "resource": {
        "resourceType": "Patient",
        "id": "TW00207",
        "identifier": [
          {
            "system": "urn:oid:2.16.886.101.20003.20001",
            "value": "TW00207"
          }
        ],
        "name": [
          {
            "text": "李家銘",
            "family": "李",
            "given": [
              "家銘"
            ]
          }
        ],
        "gender": "male",
        "birthDate": "1953-07-19",
        "address": [
          {
            "city": "嘉義縣",
            "country": "TW"
          }
        ]
      },
      "request": {
        "method": "PUT",
        "url": "Patient/TW00207"
      }
    },
    {
      "resource": {
        "resourceType": "Encounter",
        "id": "TW00207-encounter",
        "status": "finished",
        "class": {
          "system": "http://terminology.hl7.org/CodeSystem/v3-ActCode",
          "code": "AMB"
        },
        "subject": {
          "reference": "Patient/TW00207"
        },
        "period": {
          "start": "2025-02-03T00:00:00+08:00",
          "end": "2025-02-03T02:00:00+08:00"
        },
        "reasonCode": [
          {
            "coding": [
              {
                "system": "http://hl7.org/fhir/sid/icd-10",
                "code": "L03.90",
                "display": "Cellulitis, unspecified"
              }
            ],
            "text": "Cellulitis, unspecified"
          }
        ]
      },
      "request": {
        "method": "PUT",
        "url": "Encounter/TW00207-encounter"
      }
    },
    {
      "resource": {
        "resourceType": "MedicationRequest",
        "id": "TW00207-med-request",
        "status": "completed",
        "intent": "order",
        "medicationCodeableConcept": {
          "coding": [
            {
              "system": "http://www.whocc.no/atc",
              "code": "J01DD04",
              "display": "Ceftriaxone"
            }
          ],
          "text": "Ceftriaxone"
        },
        "subject": {
          "reference": "Patient/TW00207"
        },
        "encounter": {
          "reference": "Encounter/TW00207-encounter"
        },
        "authoredOn": "2025-02-03T00:00:00+08:00",
        "dosageInstruction": [
          {
            "timing": {
              "code": {
                "coding": [
                  {
                    "code": "QD"
                  }
                ]
              }
            },
            "route": {
              "coding": [
                {
                  "system": "http://terminology.hl7.org/CodeSystem/v3-RouteOfAdministration",
                  "code": "IV"
                }
              ]
            },
            "doseAndRate": [
              {
                "doseQuantity": {
                  "value": 2000.0,
                  "unit": "mg",
                  "system": "http://unitsofmeasure.org",
                  "code": "mg"
                }
              }
            ]
          }
        ]
      },
      "request": {
        "method": "PUT",
        "url": "MedicationRequest/TW00207-med-request"
      }
    },
    {
      "resource": {
        "resourceType": "MedicationAdministration",
        "id": "TW00207-med-admin-1",
        "status": "completed",
        "medicationCodeableConcept": {
          "coding": [
            {
              "system": "http://www.whocc.no/atc",
              "code": "J01DD04",
              "display": "Ceftriaxone"
            }
          ],
          "text": "Ceftriaxone"
        },
        "subject": {
          "reference": "Patient/TW00207"
        },
        "effectiveDateTime": "2025-02-03T00:00:00+08:00",
        "dosage": {
          "route": {
            "coding": [
              {
                "system": "http://terminology.hl7.org/CodeSystem/v3-RouteOfAdministration",
                "code": "IV"
              }
            ]
          },
          "dose": {
            "value": 2000.0,
            "unit": "mg",
            "system": "http://unitsofmeasure.org",
            "code": "mg"
          }
        }
      },
      "request": {
        "method": "PUT",
        "url": "MedicationAdministration/TW00207-med-admin-1"
      }
    },
    {
      "resource": {
        "resourceType": "MedicationAdministration",
        "id": "TW00207-med-admin-2",
        "status": "completed",
        "medicationCodeableConcept": {
          "coding": [
            {
              "system": "http://www.whocc.no/atc",
              "code": "J01DD04",
              "display": "Ceftriaxone"
            }
          ],
          "text": "Ceftriaxone"
        },
        "subject": {
          "reference": "Patient/TW00207"
        },
        "effectiveDateTime": "2025-02-03T00:00:00+08:00",
        "dosage": {
          "route": {
            "coding": [
              {
                "system": "http://terminology.hl7.org/CodeSystem/v3-RouteOfAdministration",
                "code": "IV"
              }
            ]
          },
          "dose": {
            "value": 2000.0,
            "unit": "mg",
            "system": "http://unitsofmeasure.org",
            "code": "mg"
          }
        }
      },
      "request": {
        "method": "PUT",
        "url": "MedicationAdministration/TW00207-med-admin-2"
      }
    },
    {
      "resource": {
        "resourceType": "Patient",
        "id": "TW00230",
        "identifier": [
          {
            "system": "urn:oid:2.16.886.101.20003.20001",
            "value": "TW00230"
          }
        ],
        "name": [
          {
            "text": "李冠宇",
            "family": "李",
            "given": [
              "冠宇"
            ]
          }
        ],
        "gender": "male",
        "birthDate": "1970-10-17",
        "address": [
          {
            "city": "連江縣",
            "country": "TW"
          }
        ]
      },
      "request": {
        "method": "PUT",
        "url": "Patient/TW00230"
      }
    },
    {
      "resource": {
        "resourceType": "Encounter",
        "id": "TW00230-encounter",
        "status": "finished",
        "class": {
          "system": "http://terminology.hl7.org/CodeSystem/v3-ActCode",
          "code": "AMB"
        },
        "subject": {
          "reference": "Patient/TW00230"
        },
        "period": {
          "start": "2025-11-03T00:00:00+08:00",
          "end": "2025-11-03T02:00:00+08:00"
        },
        "reasonCode": [
          {
            "coding": [
              {
                "system": "http://hl7.org/fhir/sid/icd-10",
                "code": "J18.9",
                "display": "Pneumonia, unspecified organism"
              }
            ],
            "text": "Pneumonia, unspecified organism"
          }
        ]
      },
      "request": {
        "method": "PUT",
        "url": "Encounter/TW00230-encounter"
      }
    },
    {
      "resource": {
        "resourceType": "MedicationRequest",
        "id": "TW00230-med-request",
        "status": "completed",
        "intent": "order",
        "medicationCodeableConcept": {
          "coding": [
            {
              "system": "http://www.whocc.no/atc",
              "code": "J01CA04",
              "display": "Amoxicillin"
            }
          ],
          "text": "Amoxicillin"
        },
        "subject": {
          "reference": "Patient/TW00230"
        },
        "encounter": {
          "reference": "Encounter/TW00230-encounter"
        },
        "authoredOn": "2025-11-03T00:00:00+08:00",
        "dosageInstruction": [
          {
            "timing": {
              "code": {
                "coding": [
                  {
                    "code": "TID"
                  }
                ]
              }
            },
            "route": {
              "coding": [
                {
                  "system": "http://terminology.hl7.org/CodeSystem/v3-RouteOfAdministration",
                  "code": "PO"
                }
              ]
            },
            "doseAndRate": [
              {
                "doseQuantity": {
                  "value": 333.3333333333333,
                  "unit": "mg",
                  "system": "http://unitsofmeasure.org",
                  "code": "mg"
                }
              }
            ]
          }
        ]
      },
      "request": {
        "method": "PUT",
        "url": "MedicationRequest/TW00230-med-request"
      }
    },
    {
      "resource": {
        "resourceType": "MedicationAdministration",
        "id": "TW00230-med-admin-1",
        "status": "completed",
        "medicationCodeableConcept": {
          "coding": [
            {
              "system": "http://www.whocc.no/atc",
              "code": "J01CA04",
              "display": "Amoxicillin"
            }
          ],
          "text": "Amoxicillin"
        },
        "subject": {
          "reference": "Patient/TW00230"
        },
        "effectiveDateTime": "2025-11-03T00:00:00+08:00",
        "dosage": {
          "route": {
            "coding": [
              {
                "system": "http://terminology.hl7.org/CodeSystem/v3-RouteOfAdministration",
                "code": "PO"
              }
            ]
          },
          "dose": {
            "value": 333.3333333333333,
            "unit": "mg",
            "system": "http://unitsofmeasure.org",
            "code": "mg"
          }
        }
      },
      "request": {
        "method": "PUT",
        "url": "MedicationAdministration/TW00230-med-admin-1"
      }
    },
    {
      "resource": {
        "resourceType": "MedicationAdministration",
        "id": "TW00230-med-admin-2",
        "status": "completed",
        "medicationCodeableConcept": {
          "coding": [
            {
              "system": "http://www.whocc.no/atc",
              "code": "J01CA04",
              "display": "Amoxicillin"
            }
          ],
          "text": "Amoxicillin"
        },
        "subject": {
          "reference": "Patient/TW00230"
        },
        "effectiveDateTime": "2025-11-03T00:00:00+08:00",
        "dosage": {
          "route": {
            "coding": [
              {
                "system": "http://terminology.hl7.org/CodeSystem/v3-RouteOfAdministration",
                "code": "PO"
              }
            ]
          },
          "dose": {
            "value": 333.3333333333333,
            "unit": "mg",
            "system": "http://unitsofmeasure.org",
            "code": "mg"
          }
        }
      },
      "request": {
        "method": "PUT",
        "url": "MedicationAdministration/TW00230-med-admin-2"
      }
    },
    {
      "resource": {
        "resourceType": "Patient",
        "id": "TW00221",
        "identifier": [
          {
            "system": "urn:oid:2.16.886.101.20003.20001",
            "value": "TW00221"
          }
        ],
        "name": [
          {
            "text": "楊淑芬",
            "family": "楊",
            "given": [
              "淑芬"
            ]
          }
        ],
        "gender": "female",
        "birthDate": "1960-11-18",
        "address": [
          {
            "city": "屏東縣",
            "country": "TW"
          }
        ]
      },
      "request": {
        "method": "PUT",
        "url": "Patient/TW00221"
      }
    },
    {
      "resource": {
        "resourceType": "Encounter",
        "id": "TW00221-encounter",
        "status": "finished",
        "class": {
          "system": "http://terminology.hl7.org/CodeSystem/v3-ActCode",
          "code": "AMB"
        },
        "subject": {
          "reference": "Patient/TW00221"
        },
        "period": {
          "start": "2025-09-21T00:00:00+08:00",
          "end": "2025-09-21T02:00:00+08:00"
        },
        "reasonCode": [
          {
            "coding": [
              {
                "system": "http://hl7.org/fhir/sid/icd-10",
                "code": "J20.9",
                "display": "Acute bronchitis, unspecified"
              }
            ],
            "text": "Acute bronchitis, unspecified"
          }
        ]
      },
      "request": {
        "method": "PUT",
        "url": "Encounter/TW00221-encounter"
      }
    },
    {
      "resource": {
        "resourceType": "MedicationRequest",
        "id": "TW00221-med-request",
        "status": "completed",
        "intent": "order",
        "medicationCodeableConcept": {
          "coding": [
            {
              "system": "http://www.whocc.no/atc",
              "code": "J01CA04",
              "display": "Amoxicillin"
            }
          ],
          "text": "Amoxicillin"
        },
        "subject": {
          "reference": "Patient/TW00221"
        },
        "encounter": {
          "reference": "Encounter/TW00221-encounter"
        },
        "authoredOn": "2025-09-21T00:00:00+08:00",
        "dosageInstruction": [
          {
            "timing": {
              "code": {
                "coding": [
                  {
                    "code": "TID"
                  }
                ]
              }
            },
            "route": {
              "coding": [
                {
                  "system": "http://terminology.hl7.org/CodeSystem/v3-RouteOfAdministration",
                  "code": "PO"
                }
              ]
            },
            "doseAndRate": [
              {
                "doseQuantity": {
                  "value": 333.3333333333333,
                  "unit": "mg",
                  "system": "http://unitsofmeasure.org",
                  "code": "mg"
                }
              }
            ]
          }
        ]
      },
      "request": {
        "method": "PUT",
        "url": "MedicationRequest/TW00221-med-request"
      }
    },
    {
      "resource": {
        "resourceType": "MedicationAdministration",
        "id": "TW00221-med-admin-1",
        "status": "completed",
        "medicationCodeableConcept": {
          "coding": [
            {
              "system": "http://www.whocc.no/atc",
              "code": "J01CA04",
              "display": "Amoxicillin"
            }
          ],
          "text": "Amoxicillin"
        },
        "subject": {
          "reference": "Patient/TW00221"
        },
        "effectiveDateTime": "2025-09-21T00:00:00+08:00",
        "dosage": {
          "route": {
            "coding": [
              {
                "system": "http://terminology.hl7.org/CodeSystem/v3-RouteOfAdministration",
                "code": "PO"
              }
            ]
          },
          "dose": {
            "value": 333.3333333333333,
            "unit": "mg",
            "system": "http://unitsofmeasure.org",
            "code": "mg"
          }
        }
      },
      "request": {
        "method": "PUT",
        "url": "MedicationAdministration/TW00221-med-admin-1"
      }
    },
    {
      "resource": {
        "resourceType": "MedicationAdministration",
        "id": "TW00221-med-admin-2",
        "status": "completed",
        "medicationCodeableConcept": {
          "coding": [
            {
              "system": "http://www.whocc.no/atc",
              "code": "J01CA04",
              "display": "Amoxicillin"
            }
          ],
          "text": "Amoxicillin"
        },
        "subject": {
          "reference": "Patient/TW00221"
        },
        "effectiveDateTime": "2025-09-21T00:00:00+08:00",
        "dosage": {
          "route": {
            "coding": [
              {
                "system": "http://terminology.hl7.org/CodeSystem/v3-RouteOfAdministration",
                "code": "PO"
              }
            ]
          },
          "dose": {
            "value": 333.3333333333333,
            "unit": "mg",
            "system": "http://unitsofmeasure.org",
            "code": "mg"
          }
        }
      },
      "request": {
        "method": "PUT",
        "url": "MedicationAdministration/TW00221-med-admin-2"
      }
    },
    {
      "resource": {
        "resourceType": "Patient",
        "id": "TW00213",
        "identifier": [
          {
            "system": "urn:oid:2.16.886.101.20003.20001",
            "value": "TW00213"
          }
        ],
        "name": [
          {
            "text": "林怡萱",
            "family": "林",
            "given": [
              "怡萱"
            ]
          }
        ],
        "gender": "female",
        "birthDate": "1969-03-02",
        "address": [
          {
            "city": "宜蘭縣",
            "country": "TW"
          }
        ]
      },
      "request": {
        "method": "PUT",
        "url": "Patient/TW00213"
      }
    },
    {
      "resource": {
        "resourceType": "Encounter",
        "id": "TW00213-encounter",
        "status": "finished",
        "class": {
          "system": "http://terminology.hl7.org/CodeSystem/v3-ActCode",
          "code": "AMB"
        },
        "subject": {
          "reference": "Patient/TW00213"
        },
        "period": {
          "start": "2025-06-17T00:00:00+08:00",
          "end": "2025-06-17T02:00:00+08:00"
        },
        "reasonCode": [
          {
            "coding": [
              {
                "system": "http://hl7.org/fhir/sid/icd-10",
                "code": "J20.9",
                "display": "Acute bronchitis, unspecified"
              }
            ],
            "text": "Acute bronchitis, unspecified"
          }
        ]
      },
      "request": {
        "method": "PUT",
        "url": "Encounter/TW00213-encounter"
      }
    },
    {
      "resource": {
        "resourceType": "MedicationRequest",
        "id": "TW00213-med-request",
        "status": "completed",
        "intent": "order",
        "medicationCodeableConcept": {
          "coding": [
            {
              "system": "http://www.whocc.no/atc",
              "code": "J01AA02",
              "display": "Doxycycline"
            }
          ],
          "text": "Doxycycline"
        },
        "subject": {
          "reference": "Patient/TW00213"
        },
        "encounter": {
          "reference": "Encounter/TW00213-encounter"
        },
        "authoredOn": "2025-06-17T00:00:00+08:00",
        "dosageInstruction": [
          {
            "timing": {
              "code": {
                "coding": [
                  {
                    "code": "BID"
                  }
                ]
              }
            },
            "route": {
              "coding": [
                {
                  "system": "http://terminology.hl7.org/CodeSystem/v3-RouteOfAdministration",
                  "code": "PO"
                }
              ]
            },
            "doseAndRate": [
              {
                "doseQuantity": {
                  "value": 50.0,
                  "unit": "mg",
                  "system": "http://unitsofmeasure.org",
                  "code": "mg"
                }
              }
            ]
          }
        ]
      },
      "request": {
        "method": "PUT",
        "url": "MedicationRequest/TW00213-med-request"
      }
    },
    {
      "resource": {
        "resourceType": "MedicationAdministration",
        "id": "TW00213-med-admin-1",
        "status": "completed",
        "medicationCodeableConcept": {
          "coding": [
            {
              "system": "http://www.whocc.no/atc",
              "code": "J01AA02",
              "display": "Doxycycline"
            }
          ],
          "text": "Doxycycline"
        },
        "subject": {
          "reference": "Patient/TW00213"
        },
        "effectiveDateTime": "2025-06-17T00:00:00+08:00",
        "dosage": {
          "route": {
            "coding": [
              {
                "system": "http://terminology.hl7.org/CodeSystem/v3-RouteOfAdministration",
                "code": "PO"
              }
            ]
          },
          "dose": {
            "value": 50.0,
            "unit": "mg",
            "system": "http://unitsofmeasure.org",
            "code": "mg"
          }
        }
      },
      "request": {
        "method": "PUT",
        "url": "MedicationAdministration/TW00213-med-admin-1"
      }
    },
    {
      "resource": {
        "resourceType": "MedicationAdministration",
        "id": "TW00213-med-admin-2",
        "status": "completed",
        "medicationCodeableConcept": {
          "coding": [
            {
              "system": "http://www.whocc.no/atc",
              "code": "J01AA02",
              "display": "Doxycycline"
            }
          ],
          "text": "Doxycycline"
        },
        "subject": {
          "reference": "Patient/TW00213"
        },
        "effectiveDateTime": "2025-06-17T00:00:00+08:00",
        "dosage": {
          "route": {
            "coding": [
              {
                "system": "http://terminology.hl7.org/CodeSystem/v3-RouteOfAdministration",
                "code": "PO"
              }
            ]
          },
          "dose": {
            "value": 50.0,
            "unit": "mg",
            "system": "http://unitsofmeasure.org",
            "code": "mg"
          }
        }
      },
      "request": {
        "method": "PUT",
        "url": "MedicationAdministration/TW00213-med-admin-2"
      }
    },
    {
      "resource": {
        "resourceType": "Patient",
        "id": "TW00210",
        "identifier": [
          {
            "system": "urn:oid:2.16.886.101.20003.20001",
            "value": "TW00210"
          }
        ],
        "name": [
          {
            "text": "邱怡君",
            "family": "邱",
            "given": [
              "怡君"
            ]
          }
        ],
        "gender": "female",
        "birthDate": "1980-03-13",
        "address": [
          {
            "city": "嘉義縣",
            "country": "TW"
          }
        ]
      },
      "request": {
        "method": "PUT",
        "url": "Patient/TW00210"
      }
    },
    {
      "resource": {
        "resourceType": "Encounter",
        "id": "TW00210-encounter",
        "status": "finished",
        "class": {
          "system": "http://terminology.hl7.org/CodeSystem/v3-ActCode",
          "code": "EMER"
        },
        "subject": {
          "reference": "Patient/TW00210"
        },
        "period": {
          "start": "2025-10-25T00:00:00+08:00",
          "end": "2025-10-25T02:00:00+08:00"
        },
        "reasonCode": [
          {
            "coding": [
              {
                "system": "http://hl7.org/fhir/sid/icd-10",
                "code": "J20.9",
                "display": "Acute bronchitis, unspecified"
              }
            ],
            "text": "Acute bronchitis, unspecified"
          }
        ]
      },
      "request": {
        "method": "PUT",
        "url": "Encounter/TW00210-encounter"
      }
    },
    {
      "resource": {
        "resourceType": "MedicationRequest",
        "id": "TW00210-med-request",
        "status": "completed",
        "intent": "order",
        "medicationCodeableConcept": {
          "coding": [
            {
              "system": "http://www.whocc.no/atc",
              "code": "J01AA02",
              "display": "Doxycycline"
            }
          ],
          "text": "Doxycycline"
        },
        "subject": {
          "reference": "Patient/TW00210"
        },
        "encounter": {
          "reference": "Encounter/TW00210-encounter"
        },
        "authoredOn": "2025-10-25T00:00:00+08:00",
        "dosageInstruction": [
          {
            "timing": {
              "code": {
                "coding": [
                  {
                    "code": "BID"
                  }
                ]
              }
            },
            "route": {
              "coding": [
                {
                  "system": "http://terminology.hl7.org/CodeSystem/v3-RouteOfAdministration",
                  "code": "PO"
                }
              ]
            },
            "doseAndRate": [
              {
                "doseQuantity": {
                  "value": 50.0,
                  "unit": "mg",
                  "system": "http://unitsofmeasure.org",
                  "code": "mg"
                }
              }
            ]
          }
        ]
      },
      "request": {
        "method": "PUT",
        "url": "MedicationRequest/TW00210-med-request"
      }
    },
    {
      "resource": {
        "resourceType": "MedicationAdministration",
        "id": "TW00210-med-admin-1",
        "status": "completed",
        "medicationCodeableConcept": {
          "coding": [
            {
              "system": "http://www.whocc.no/atc",
              "code": "J01AA02",
              "display": "Doxycycline"
            }
          ],
          "text": "Doxycycline"
        },
        "subject": {
          "reference": "Patient/TW00210"
        },
        "effectiveDateTime": "2025-10-25T00:00:00+08:00",
        "dosage": {
          "route": {
            "coding": [
              {
                "system": "http://terminology.hl7.org/CodeSystem/v3-RouteOfAdministration",
                "code": "PO"
              }
            ]
          },
          "dose": {
            "value": 50.0,
            "unit": "mg",
            "system": "http://unitsofmeasure.org",
            "code": "mg"
          }
        }
      },
      "request": {
        "method": "PUT",
        "url": "MedicationAdministration/TW00210-med-admin-1"
      }
    },
    {
      "resource": {
        "resourceType": "Patient",
        "id": "TW00220",
        "identifier": [
          {
            "system": "urn:oid:2.16.886.101.20003.20001",
            "value": "TW00220"
          }
        ],
        "name": [
          {
            "text": "李怡靜",
            "family": "李",
            "given": [
              "怡靜"
            ]
          }
        ],
        "gender": "female",
        "birthDate": "1992-08-10",
        "address": [
          {
            "city": "台中市",
            "country": "TW"
          }
        ]
      },
      "request": {
        "method": "PUT",
        "url": "Patient/TW00220"
      }
    },
    {
      "resource": {
        "resourceType": "Encounter",
        "id": "TW00220-encounter",
        "status": "finished",
        "class": {
          "system": "http://terminology.hl7.org/CodeSystem/v3-ActCode",
          "code": "AMB"
        },
        "subject": {
          "reference": "Patient/TW00220"
        },
        "period": {
          "start": "2025-05-02T00:00:00+08:00",
          "end": "2025-05-02T02:00:00+08:00"
        },
        "reasonCode": [
          {
            "coding": [
              {
                "system": "http://hl7.org/fhir/sid/icd-10",
                "code": "J18.9",
                "display": "Pneumonia, unspecified organism"
              }
            ],
            "text": "Pneumonia, unspecified organism"
          }
        ]
      },
      "request": {
        "method": "PUT",
        "url": "Encounter/TW00220-encounter"
      }
    },
    {
      "resource": {
        "resourceType": "MedicationRequest",
        "id": "TW00220-med-request",
        "status": "completed",
        "intent": "order",
        "medicationCodeableConcept": {
          "coding": [
            {
              "system": "http://www.whocc.no/atc",
              "code": "J01CA04",
              "display": "Amoxicillin"
            }
          ],
          "text": "Amoxicillin"
        },
        "subject": {
          "reference": "Patient/TW00220"
        },
        "encounter": {
          "reference": "Encounter/TW00220-encounter"
        },
        "authoredOn": "2025-05-02T00:00:00+08:00",
        "dosageInstruction": [
          {
            "timing": {
              "code": {
                "coding": [
                  {
                    "code": "TID"
                  }
                ]
              }
            },
            "route": {
              "coding": [
                {
                  "system": "http://terminology.hl7.org/CodeSystem/v3-RouteOfAdministration",
                  "code": "PO"
                }
              ]
            },
            "doseAndRate": [
              {
                "doseQuantity": {
                  "value": 333.3333333333333,
                  "unit": "mg",
                  "system": "http://unitsofmeasure.org",
                  "code": "mg"
                }
              }
            ]
          }
        ]
      },
      "request": {
        "method": "PUT",
        "url": "MedicationRequest/TW00220-med-request"
      }
    },
    {
      "resource": {
        "resourceType": "MedicationAdministration",
        "id": "TW00220-med-admin-1",
        "status": "completed",
        "medicationCodeableConcept": {
          "coding": [
            {
              "system": "http://www.whocc.no/atc",
              "code": "J01CA04",
              "display": "Amoxicillin"
            }
          ],
          "text": "Amoxicillin"
        },
        "subject": {
          "reference": "Patient/TW00220"
        },
        "effectiveDateTime": "2025-05-02T00:00:00+08:00",
        "dosage": {
          "route": {
            "coding": [
              {
                "system": "http://terminology.hl7.org/CodeSystem/v3-RouteOfAdministration",
                "code": "PO"
              }
            ]
          },
          "dose": {
            "value": 333.3333333333333,
            "unit": "mg",
            "system": "http://unitsofmeasure.org",
            "code": "mg"
          }
        }
      },
      "request": {
        "method": "PUT",
        "url": "MedicationAdministration/TW00220-med-admin-1"
      }
    },
    {
      "resource": {
        "resourceType": "Patient",
        "id": "TW00212",
        "identifier": [
          {
            "system": "urn:oid:2.16.886.101.20003.20001",
            "value": "TW00212"
          }
        ],
        "name": [
          {
            "text": "張佳蓉",
            "family": "張",
            "given": [
              "佳蓉"
            ]
          }
        ],
        "gender": "female",
        "birthDate": "1984-09-26",
        "address": [
          {
            "city": "彰化縣",
            "country": "TW"
          }
        ]
      },
      "request": {
        "method": "PUT",
        "url": "Patient/TW00212"
      }
    },
    {
      "resource": {
        "resourceType": "Encounter",
        "id": "TW00212-encounter",
        "status": "finished",
        "class": {
          "system": "http://terminology.hl7.org/CodeSystem/v3-ActCode",
          "code": "EMER"
        },
        "subject": {
          "reference": "Patient/TW00212"
        },
        "period": {
          "start": "2025-10-08T00:00:00+08:00",
          "end": "2025-10-08T02:00:00+08:00"
        },
        "reasonCode": [
          {
            "coding": [
              {
                "system": "http://hl7.org/fhir/sid/icd-10",
                "code": "J18.9",
                "display": "Pneumonia, unspecified organism"
              }
            ],
            "text": "Pneumonia, unspecified organism"
          }
        ]
      },
      "request": {
        "method": "PUT",
        "url": "Encounter/TW00212-encounter"
      }
    },
    {
      "resource": {
        "resourceType": "MedicationRequest",
        "id": "TW00212-med-request",
        "status": "completed",
        "intent": "order",
        "medicationCodeableConcept": {
          "coding": [
            {
              "system": "http://www.whocc.no/atc",
              "code": "J01CA04",
              "display": "Amoxicillin"
            }
          ],
          "text": "Amoxicillin"
        },
        "subject": {
          "reference": "Patient/TW00212"
        },
        "encounter": {
          "reference": "Encounter/TW00212-encounter"
        },
        "authoredOn": "2025-10-08T00:00:00+08:00",
        "dosageInstruction": [
          {
            "timing": {
              "code": {
                "coding": [
                  {
                    "code": "TID"
                  }
                ]
              }
            },
            "route": {
              "coding": [
                {
                  "system": "http://terminology.hl7.org/CodeSystem/v3-RouteOfAdministration",
                  "code": "PO"
                }
              ]
            },
            "doseAndRate": [
              {
                "doseQuantity": {
                  "value": 333.3333333333333,
                  "unit": "mg",
                  "system": "http://unitsofmeasure.org",
                  "code": "mg"
                }
              }
            ]
          }
        ]
      },
      "request": {
        "method": "PUT",
        "url": "MedicationRequest/TW00212-med-request"
      }
    },
    {
      "resource": {
        "resourceType": "MedicationAdministration",
        "id": "TW00212-med-admin-1",
        "status": "completed",
        "medicationCodeableConcept": {
          "coding": [
            {
              "system": "http://www.whocc.no/atc",
              "code": "J01CA04",
              "display": "Amoxicillin"
            }
          ],
          "text": "Amoxicillin"
        },
        "subject": {
          "reference": "Patient/TW00212"
        },
        "effectiveDateTime": "2025-10-08T00:00:00+08:00",
        "dosage": {
          "route": {
            "coding": [
              {
                "system": "http://terminology.hl7.org/CodeSystem/v3-RouteOfAdministration",
                "code": "PO"
              }
            ]
          },
          "dose": {
            "value": 333.3333333333333,
            "unit": "mg",
            "system": "http://unitsofmeasure.org",
            "code": "mg"
          }
        }
      },
      "request": {
        "method": "PUT",
        "url": "MedicationAdministration/TW00212-med-admin-1"
      }
    },
    {
      "resource": {
        "resourceType": "MedicationAdministration",
        "id": "TW00212-med-admin-2",
        "status": "completed",
        "medicationCodeableConcept": {
          "coding": [
            {
              "system": "http://www.whocc.no/atc",
              "code": "J01CA04",
              "display": "Amoxicillin"
            }
          ],
          "text": "Amoxicillin"
        },
        "subject": {
          "reference": "Patient/TW00212"
        },
        "effectiveDateTime": "2025-10-08T00:00:00+08:00",
        "dosage": {
          "route": {
            "coding": [
              {
                "system": "http://terminology.hl7.org/CodeSystem/v3-RouteOfAdministration",
                "code": "PO"
              }
            ]
          },
          "dose": {
            "value": 333.3333333333333,
            "unit": "mg",
            "system": "http://unitsofmeasure.org",
            "code": "mg"
          }
        }
      },
      "request": {
        "method": "PUT",
        "url": "MedicationAdministration/TW00212-med-admin-2"
      }
    },
    {
      "resource": {
        "resourceType": "Patient",
        "id": "TW00249",
        "identifier": [
          {
            "system": "urn:oid:2.16.886.101.20003.20001",
            "value": "TW00249"
          }
        ],
        "name": [
          {
            "text": "李雅芳",
            "family": "李",
            "given": [
              "雅芳"
            ]
          }
        ],
        "gender": "female",
        "birthDate": "1984-12-22",
        "address": [
          {
            "city": "台南市",
            "country": "TW"
          }
        ]
      },
      "request": {
        "method": "PUT",
        "url": "Patient/TW00249"
      }
    },
    {
      "resource": {
        "resourceType": "Encounter",
        "id": "TW00249-encounter",
        "status": "finished",
        "class": {
          "system": "http://terminology.hl7.org/CodeSystem/v3-ActCode",
          "code": "EMER"
        },
        "subject": {
          "reference": "Patient/TW00249"
        },
        "period": {
          "start": "2025-06-12T00:00:00+08:00",
          "end": "2025-06-12T02:00:00+08:00"
        },
        "reasonCode": [
          {
            "coding": [
              {
                "system": "http://hl7.org/fhir/sid/icd-10",
                "code": "J20.9",
                "display": "Acute bronchitis, unspecified"
              }
            ],
            "text": "Acute bronchitis, unspecified"
          }
        ]
      },
      "request": {
        "method": "PUT",
        "url": "Encounter/TW00249-encounter"
      }
    },
    {
      "resource": {
        "resourceType": "MedicationRequest",
        "id": "TW00249-med-request",
        "status": "completed",
        "intent": "order",
        "medicationCodeableConcept": {
          "coding": [
            {
              "system": "http://www.whocc.no/atc",
              "code": "J01MA02",
              "display": "Ciprofloxacin"
            }
          ],
          "text": "Ciprofloxacin"
        },
        "subject": {
          "reference": "Patient/TW00249"
        },
        "encounter": {
          "reference": "Encounter/TW00249-encounter"
        },
        "authoredOn": "2025-06-12T00:00:00+08:00",
        "dosageInstruction": [
          {
            "timing": {
              "code": {
                "coding": [
                  {
                    "code": "BID"
                  }
                ]
              }
            },
            "route": {
              "coding": [
                {
                  "system": "http://terminology.hl7.org/CodeSystem/v3-RouteOfAdministration",
                  "code": "PO"
                }
              ]
            },
            "doseAndRate": [
              {
                "doseQuantity": {
                  "value": 400.0,
                  "unit": "mg",
                  "system": "http://unitsofmeasure.org",
                  "code": "mg"
                }
              }
            ]
          }
        ]
      },
      "request": {
        "method": "PUT",
        "url": "MedicationRequest/TW00249-med-request"
      }
    },
    {
      "resource": {
        "resourceType": "MedicationAdministration",
        "id": "TW00249-med-admin-1",
        "status": "completed",
        "medicationCodeableConcept": {
          "coding": [
            {
              "system": "http://www.whocc.no/atc",
              "code": "J01MA02",
              "display": "Ciprofloxacin"
            }
          ],
          "text": "Ciprofloxacin"
        },
        "subject": {
          "reference": "Patient/TW00249"
        },
        "effectiveDateTime": "2025-06-12T00:00:00+08:00",
        "dosage": {
          "route": {
            "coding": [
              {
                "system": "http://terminology.hl7.org/CodeSystem/v3-RouteOfAdministration",
                "code": "PO"
              }
            ]
          },
          "dose": {
            "value": 400.0,
            "unit": "mg",
            "system": "http://unitsofmeasure.org",
            "code": "mg"
          }
        }
      },
      "request": {
        "method": "PUT",
        "url": "MedicationAdministration/TW00249-med-admin-1"
      }
    },
    {
      "resource": {
        "resourceType": "MedicationAdministration",
        "id": "TW00249-med-admin-2",
        "status": "completed",
        "medicationCodeableConcept": {
          "coding": [
            {
              "system": "http://www.whocc.no/atc",
              "code": "J01MA02",
              "display": "Ciprofloxacin"
            }
          ],
          "text": "Ciprofloxacin"
        },
        "subject": {
          "reference": "Patient/TW00249"
        },
        "effectiveDateTime": "2025-06-12T00:00:00+08:00",
        "dosage": {
          "route": {
            "coding": [
              {
                "system": "http://terminology.hl7.org/CodeSystem/v3-RouteOfAdministration",
                "code": "PO"
              }
            ]
          },
          "dose": {
            "value": 400.0,
            "unit": "mg",
            "system": "http://unitsofmeasure.org",
            "code": "mg"
          }
        }
      },
      "request": {
        "method": "PUT",
        "url": "MedicationAdministration/TW00249-med-admin-2"
      }
    }
  ]
}